{
  "resourceType": "Bundle",
  "meta": {
    "profile": [
      "http://hl7.org/fhir/us/mdi/StructureDefinition/Bundle-document-mdi-to-edrs"
    ]
  },
  "identifier": {
    "system": "urn:ietf:rfc:3986",
    "value": "urn:uuid:933dde44f7664b03a20b6324f23986c0"
  },
  "type": "document",
  "timestamp": "2022-10-12T04:30:59.725866-04:00",
  "entry": [
    {
      "fullUrl": "Composition/39beace2-4c3d-4f6c-a4b2-1c61806f5ac5",
      "resource": {
        "resourceType": "Composition",
        "id": "39beace2-4c3d-4f6c-a4b2-1c61806f5ac5",
        "meta": {
          "profile": [
            "http://hl7.org/fhir/us/mdi/StructureDefinition/Composition-mdi-to-edrs"
          ]
        },
        "extension": [
          {
            "url": "http://hl7.org/fhir/us/mdi/StructureDefinition/Extension-tracking-number",
            "valueIdentifier": {
              "type": {
                "coding": [
                  {
                    "system": "http://hl7.org/fhir/us/mdi/CodeSystem/CodeSystem-mdi-codes",
                    "code": "mdi-case-number",
                    "display": "MDI Case Number"
                  }
                ]
              },
              "system": "urn:connectathon:test",
              "value": "Case1234"
            }
          }
        ],
        "identifier": {
          "value": "a03eab8c-11e8-4d0c-ad2a-b385395e27de"
        },
        "status": "final",
        "type": {
          "coding": [
            {
              "system": "http://loinc.org",
              "code": "86807-5",
              "display": "Death administrative information Document"
            }
          ]
        },
        "subject": {
          "reference": "Patient/95de8c90-8159-40c2-b425-a323f23988e8"
        },
        "date": "2022-02-20",
        "author": [
          {
            "reference": "Practitioner/0b7f5c07-16a9-4f8d-8c9f-d5e5f2830b3b"
          }
        ],
        "title": "MDI to EDRS Composition",
        "attester": [
          {
            "mode": "official",
            "party": {
              "reference": "Practitioner/0b7f5c07-16a9-4f8d-8c9f-d5e5f2830b3b"
            }
          }
        ],
        "section": [
          {
            "title": "Demographics Section",
            "code": {
              "coding": [
                {
                  "system": "http://hl7.org/fhir/us/mdi/CodeSystem/CodeSystem-mdi-codes",
                  "code": "demographics",
                  "display": "Demographics Section"
                }
              ]
            },
            "text": {
              "status": "additional",
              "div": "<div xmlns=\"http://www.w3.org/1999/xhtml\">\n  <p>No additional demographic information</p>\n  </div>"
            }
          },
          {
            "title": "Circumstances of the Death Section",
            "code": {
              "coding": [
                {
                  "system": "http://hl7.org/fhir/us/mdi/CodeSystem/CodeSystem-mdi-codes",
                  "code": "circumstances",
                  "display": "Circumstances of the Death Section"
                }
              ]
            },
            "entry": [
              {
                "reference": "Location/6cccb623-47ac-4762-a771-68eb584fa783"
              }
            ]
          },
          {
            "title": "Jurisdiction Section",
            "code": {
              "coding": [
                {
                  "system": "http://hl7.org/fhir/us/mdi/CodeSystem/CodeSystem-mdi-codes",
                  "code": "jurisdiction",
                  "display": "Jurisdiction Section"
                }
              ]
            },
            "entry": [
              {
                "reference": "Observation/5d31e06e-e680-40a3-9e63-47dbc226715a"
              },
              {
                "reference": "Procedure/2d0c8ddc-b491-4088-b8fd-3f203077415b"
              }
            ]
          },
          {
            "title": "Cause and Manner of Death Section",
            "code": {
              "coding": [
                {
                  "system": "http://hl7.org/fhir/us/mdi/CodeSystem/CodeSystem-mdi-codes",
                  "code": "cause-manner",
                  "display": "Cause and Manner of Death Section"
                }
              ]
            },
            "entry": [
              {
                "reference": "Observation/1c42c59c-314d-4892-ae90-2e392bbe0a1a"
              },
              {
                "reference": "Observation/b32532da-4fa4-4790-9414-a07f832541f3"
              },
              {
                "reference": "Observation/4a359929-105b-4ccc-bf5a-b1a4cf3cddb9"
              },
              {
                "reference": "Observation/3be9a0e1-2b9e-4dfb-809a-8cc77f6d3f98"
              }
            ]
          },
          {
            "title": "Medical History Section",
            "code": {
              "coding": [
                {
                  "system": "http://hl7.org/fhir/us/mdi/CodeSystem/CodeSystem-mdi-codes",
                  "code": "medical-history",
                  "display": "Medical History Section"
                }
              ]
            },
            "text": {
              "status": "generated",
              "div": "Medical History is not available"
            },
            "emptyReason": {
              "coding": [
                {
                  "system": "http://terminology.hl7.org/CodeSystem/list-empty-reason",
                  "code": "unavailable",
                  "display": "Unavailable"
                }
              ]
            }
          }
        ]
      }
    },
    {
      "fullUrl": "Patient/95de8c90-8159-40c2-b425-a323f23988e8",
      "resource": {
        "resourceType": "Patient",
        "id": "95de8c90-8159-40c2-b425-a323f23988e8",
        "meta": {
          "profile": [
            "http://hl7.org/fhir/us/core/StructureDefinition/us-core-patient"
          ]
        },
        "extension": [
          {
            "extension": [
              {
                "url": "ombCategory",
                "valueCoding": {
                  "system": "urn:oid:2.16.840.1.113883.6.238",
                  "code": "2106-3",
                  "display": "White"
                }
              },
              {
                "url": "detailed",
                "valueCoding": {
                  "system": "urn:oid:2.16.840.1.113883.6.238",
                  "code": "1010-8",
                  "display": "Apache"
                }
              },
              {
                "url": "text",
                "valueString": "Apache"
              }
            ],
            "url": "http://hl7.org/fhir/us/core/StructureDefinition/us-core-race"
          },
          {
            "extension": [
              {
                "url": "ombCategory",
                "valueCoding": {
                  "system": "urn:oid:2.16.840.1.113883.6.238",
                  "code": "2186-5",
                  "display": "Not Hispanic or Latino"
                }
              },
              {
                "url": "detailed",
                "valueCoding": {
                  "system": "urn:oid:2.16.840.1.113883.6.238",
                  "code": "2162-6",
                  "display": "Central American Indian"
                }
              },
              {
                "url": "text",
                "valueString": "Not Hispanic or Latino"
              }
            ],
            "url": "http://hl7.org/fhir/us/core/StructureDefinition/us-core-ethnicity"
          },
          {
            "url": "http://hl7.org/fhir/us/core/StructureDefinition/us-core-birthsex",
            "valueCode": "F"
          }
        ],
        "identifier": [
          {
            "use": "usual",
            "type": {
              "coding": [
                {
                  "system": "http://terminology.hl7.org/CodeSystem/v2-0203",
                  "code": "SS",
                  "display": "Social Security number"
                }
              ],
              "text": "Social Security number"
            },
            "system": "http://hospital.smarthealthit.org",
            "value": "987054321"
          }
        ],
        "name": [
          {
            "family": "FREEMAN",
            "given": [
              "Alice",
              "J"
            ]
          }
        ],
        "telecom": [
          {
            "system": "phone",
            "value": "212-867-5309",
            "use": "home"
          },
          {
            "system": "phone",
            "value": "212-867-5310",
            "use": "home"
          },
          {
            "system": "email",
            "value": "mywork@gtri.org",
            "use": "work"
          }
        ],
        "gender": "female",
        "birthDate": "1965-05-02",
        "deceasedDateTime": "2014-03-02",
        "address": [
          {
            "use": "home",
            "state": "TX",
            "postalCode": "77018",
            "country": "USA"
          }
        ]
      }
    },
    {
      "fullUrl": "Practitioner/0b7f5c07-16a9-4f8d-8c9f-d5e5f2830b3b",
      "resource": {
        "resourceType": "Practitioner",
        "id": "0b7f5c07-16a9-4f8d-8c9f-d5e5f2830b3b",
        "meta": {
          "profile": [
            "http://hl7.org/fhir/us/core/StructureDefinition/us-core-practitioner"
          ]
        },
        "identifier": [
          {
            "system": "http://hl7.org/fhir/sid/us-npi",
            "value": "3333445555"
          }
        ],
        "name": [
          {
            "use": "official",
            "family": "Jones",
            "given": [
              "Sam"
            ],
            "prefix": [
              "Dr"
            ]
          }
        ]
      }
    },
    {
      "fullUrl": "Location/6cccb623-47ac-4762-a771-68eb584fa783",
      "resource": {
        "resourceType": "Location",
        "id": "6cccb623-47ac-4762-a771-68eb584fa783",
        "meta": {
          "profile": [
            "http://hl7.org/fhir/us/core/StructureDefinition/us-core-location",
            "http://hl7.org/fhir/us/mdi/StructureDefinition/Location-death"
          ]
        },
        "identifier": [
          {
            "system": "http://www.acme.org/location",
            "value": "29"
          }
        ],
        "status": "active",
        "name": "Atlanta GA Death Location - Freeman",
        "type": [
          {
            "coding": [
              {
                "system": "http://hl7.org/fhir/us/mdi/CodeSystem/CodeSystem-mdi-codes",
                "code": "death",
                "display": "Death Location"
              }
            ]
          }
        ],
        "address": {
          "use": "home",
          "type": "physical",
          "line": [
            "400 Windstream Street"
          ],
          "city": "Atlanta",
          "district": "Fulton County",
          "state": "GA",
          "country": "USA"
        }
      }
    },
    {
      "fullUrl": "Observation/5d31e06e-e680-40a3-9e63-47dbc226715a",
      "resource": {
        "resourceType": "Observation",
        "id": "5d31e06e-e680-40a3-9e63-47dbc226715a",
        "meta": {
          "profile": [
            "http://hl7.org/fhir/us/mdi/StructureDefinition/Observation-death-date"
          ]
        },
        "status": "final",
        "code": {
          "coding": [
            {
              "system": "http://loinc.org",
              "code": "81956-5",
              "display": "Date and time of death [TimeStamp]"
            }
          ]
        },
        "subject": {
          "reference": "Patient/95de8c90-8159-40c2-b425-a323f23988e8"
        },
        "effectiveDateTime": "2022-01-08T15:30:00-05:00",
        "valueDateTime": "2022-01-08T14:04:00-05:00",
        "method": {
          "coding": [
            {
              "system": "http://hl7.org/fhir/us/mdi/CodeSystem/CodeSystem-mdi-codes",
              "code": "exact",
              "display": "Exact"
            }
          ]
        },
        "component": [
          {
            "code": {
              "coding": [
                {
                  "system": "http://loinc.org",
                  "code": "80616-6",
                  "display": "Date and time pronounced dead [US Standard Certificate of Death]"
                }
              ]
            },
            "valueDateTime": "2022-01-08T15:30:00-05:00"
          },
          {
            "code": {
              "coding": [
                {
                  "system": "http://loinc.org",
                  "code": "58332-8",
                  "display": "Location of death"
                }
              ]
            },
            "valueCodeableConcept": {
              "coding": [
                {
                  "system": "http://snomed.info/sct",
                  "code": "63238001",
                  "display": "Dead on arrival at hospital"
                }
              ]
            }
          }
        ]
      }
    },
    {
      "fullUrl": "Procedure/2d0c8ddc-b491-4088-b8fd-3f203077415b",
      "resource": {
        "resourceType": "Procedure",
        "id": "2d0c8ddc-b491-4088-b8fd-3f203077415b",
        "meta": {
          "profile": [
            "http://hl7.org/fhir/us/mdi/StructureDefinition/Procedure-death-certification"
          ]
        },
        "status": "completed",
        "category": {
          "coding": [
            {
              "system": "http://snomed.info/sct",
              "code": "103693007",
              "display": "Diagnostic procedure"
            }
          ]
        },
        "code": {
          "coding": [
            {
              "system": "http://snomed.info/sct",
              "code": "308646001",
              "display": "Death certification"
            }
          ]
        },
        "subject": {
          "reference": "Patient/95de8c90-8159-40c2-b425-a323f23988e8"
        },
        "performedDateTime": "2022-01-08T15:30:00-05:00",
        "performer": [
          {
            "function": {
              "coding": [
                {
                  "system": "http://snomed.info/sct",
                  "code": "455381000124109",
                  "display": "Medical Examiner/Coroner-On the basis of examination, and/or investigation, in my opinion, death occurred at the time, date, and place, and due to the cause(s) and manner stated"
                }
              ]
            },
            "actor": {
              "reference": "Practitioner/0b7f5c07-16a9-4f8d-8c9f-d5e5f2830b3b"
            }
          }
        ]
      }
    },
    {
      "fullUrl": "Observation/1c42c59c-314d-4892-ae90-2e392bbe0a1a",
      "resource": {
        "resourceType": "Observation",
        "id": "1c42c59c-314d-4892-ae90-2e392bbe0a1a",
        "meta": {
          "profile": [
            "http://hl7.org/fhir/us/mdi/StructureDefinition/Observation-cause-of-death-part1"
          ]
        },
        "status": "final",
        "code": {
          "coding": [
            {
              "system": "http://loinc.org",
              "code": "69453-9",
              "display": "Cause of death [US Standard Certificate of Death]"
            }
          ]
        },
        "subject": {
          "reference": "Patient/95de8c90-8159-40c2-b425-a323f23988e8"
        },
        "performer": [
          {
            "reference": "Practitioner/0b7f5c07-16a9-4f8d-8c9f-d5e5f2830b3b"
          }
        ],
        "valueCodeableConcept": {
          "text": "Fentanyl toxicity"
        },
        "component": [
          {
            "code": {
              "coding": [
                {
                  "system": "http://hl7.org/fhir/us/mdi/CodeSystem/CodeSystem-local-component-codes",
                  "code": "lineNumber",
                  "display": "lineNumber"
                }
              ]
            },
            "valueInteger": 1
          },
          {
            "code": {
              "coding": [
                {
                  "system": "http://loinc.org",
                  "code": "69440-6",
                  "display": "Disease onset to death interval"
                }
              ]
            },
            "valueString": "minutes to hours"
          }
        ]
      }
    },
    {
      "fullUrl": "Observation/b32532da-4fa4-4790-9414-a07f832541f3",
      "resource": {
        "resourceType": "Observation",
        "id": "b32532da-4fa4-4790-9414-a07f832541f3",
        "meta": {
          "profile": [
            "http://hl7.org/fhir/us/mdi/StructureDefinition/Observation-cause-of-death-part1"
          ]
        },
        "status": "final",
        "code": {
          "coding": [
            {
              "system": "http://loinc.org",
              "code": "69453-9",
              "display": "Cause of death [US Standard Certificate of Death]"
            }
          ]
        },
        "subject": {
          "reference": "Patient/95de8c90-8159-40c2-b425-a323f23988e8"
        },
        "performer": [
          {
            "reference": "Practitioner/0b7f5c07-16a9-4f8d-8c9f-d5e5f2830b3b"
          }
        ],
        "valueCodeableConcept": {
          "text": "Fentanyl toxicity"
        },
        "component": [
          {
            "code": {
              "coding": [
                {
                  "system": "http://hl7.org/fhir/us/mdi/CodeSystem/CodeSystem-local-component-codes",
                  "code": "lineNumber",
                  "display": "lineNumber"
                }
              ]
            },
            "valueInteger": 2
          },
          {
            "code": {
              "coding": [
                {
                  "system": "http://loinc.org",
                  "code": "69440-6",
                  "display": "Disease onset to death interval"
                }
              ]
            },
            "valueString": "minutes to hours"
          }
        ]
      }
    },
    {
      "fullUrl": "Observation/4a359929-105b-4ccc-bf5a-b1a4cf3cddb9",
      "resource": {
        "resourceType": "Observation",
        "id": "4a359929-105b-4ccc-bf5a-b1a4cf3cddb9",
        "meta": {
          "profile": [
            "http://hl7.org/fhir/us/mdi/StructureDefinition/Observation-contributing-cause-of-death-part2"
          ]
        },
        "status": "final",
        "code": {
          "coding": [
            {
              "system": "http://loinc.org",
              "code": "69441-4",
              "display": "Other significant causes or conditions of death"
            }
          ]
        },
        "subject": {
          "reference": "Patient/95de8c90-8159-40c2-b425-a323f23988e8"
        },
        "performer": [
          {
            "reference": "Practitioner/0b7f5c07-16a9-4f8d-8c9f-d5e5f2830b3b"
          }
        ],
        "valueCodeableConcept": {
          "text": "Hypertensive heart disease"
        }
      }
    },
    {
      "fullUrl": "Observation/3be9a0e1-2b9e-4dfb-809a-8cc77f6d3f98",
      "resource": {
        "resourceType": "Observation",
        "id": "3be9a0e1-2b9e-4dfb-809a-8cc77f6d3f98",
        "meta": {
          "profile": [
            "http://hl7.org/fhir/us/mdi/StructureDefinition/Observation-how-death-injury-occurred"
          ]
        },
        "status": "final",
        "code": {
          "coding": [
            {
              "system": "http://loinc.org",
              "code": "11374-6",
              "display": "Injury incident description Narrative"
            }
          ]
        },
        "subject": {
          "reference": "Patient/95de8c90-8159-40c2-b425-a323f23988e8"
        },
        "_effectiveDateTime": {
          "extension": [
            {
              "extension": [
                {
                  "url": "http://hl7.org/fhir/us/mdi/StructureDefinition/Extension-date-year",
                  "valueUnsignedInt": 2022
                },
                {
                  "url": "http://hl7.org/fhir/us/mdi/StructureDefinition/Extension-date-month",
                  "valueUnsignedInt": 2
                },
                {
                  "url": "http://hl7.org/fhir/us/mdi/StructureDefinition/Extension-date-day",
                  "valueUnsignedInt": 1
                },
                {
                  "url": "http://hl7.org/fhir/us/mdi/StructureDefinition/Extension-date-time",
                  "valueTime": "12:30:45"
                }
              ],
              "url": "http://hl7.org/fhir/us/mdi/StructureDefinition/Extension-partial-date-time"
            }
          ]
        },
        "performer": [
          {
            "reference": "Practitioner/0b7f5c07-16a9-4f8d-8c9f-d5e5f2830b3b"
          }
        ],
        "valueCodeableConcept": {
          "text": "Ingested counterfeit medication"
        },
        "component": [
          {
            "code": {
              "coding": [
                {
                  "system": "http://loinc.org",
                  "code": "69450-5"
                }
              ]
            },
            "valueCodeableConcept": {
              "text": "Private House"
            }
          }
        ]
      }
    }
  ]
}