{
  "resourceType": "Bundle",
  "meta": {
    "profile": [
      "http://hl7.org/fhir/us/mdi/StructureDefinition/Bundle-document-mdi-to-edrs"
    ]
  },
  "identifier": {
    "system": "urn:ietf:rfc:3986",
    "value": "urn:uuid:933dde44f7664b03a20b6324f23986c0"
  },
  "type": "document",
  "timestamp": "2022-04-02T13:59:56.45933-04:00",
  "entry": [
    {
      "fullUrl": "Composition/43166a50-e90c-4b38-924f-31c2b597efaa",
      "resource": {
        "resourceType": "Composition",
        "id": "43166a50-e90c-4b38-924f-31c2b597efaa",
        "meta": {
          "profile": [
            "http://hl7.org/fhir/us/mdi/StructureDefinition/Composition-mdi-to-edrs"
          ]
        },
        "extension": [
          {
            "url": "http://hl7.org/fhir/us/mdi/StructureDefinition/Extension-tracking-number",
            "valueIdentifier": {
              "type": {
                "coding": [
                  {
                    "system": "http://hl7.org/fhir/us/mdi/CodeSystem/CodeSystem-mdi-codes",
                    "code": "mdi-case-number",
                    "display": "MDI Case Number"
                  }
                ]
              },
              "value": "Case1234"
            }
          }
        ],
        "identifier": {
          "value": "a03eab8c-11e8-4d0c-ad2a-b385395e27de"
        },
        "status": "final",
        "type": {
          "coding": [
            {
              "system": "http://loinc.org",
              "code": "86807-5"
            }
          ]
        },
        "subject": {
          "reference": "Patient/3579bd54-f63a-402b-ae22-dbcf71526213"
        },
        "date": "2022-02-20",
        "author": [
          {
            "reference": "Practitioner/dd618776-72d8-4572-88b7-045837554fe3"
          }
        ],
        "title": "MDI to EDRS Composition",
        "section": [
          {
            "title": "Demographics Section",
            "code": {
              "coding": [
                {
                  "system": "http://hl7.org/fhir/us/mdi/CodeSystem/CodeSystem-mdi-codes",
                  "code": "demographics",
                  "display": "Demographics Section"
                }
              ]
            },
            "entry": [
              {
                "reference": "Observation/2e5e1eaf-fe30-4632-8c01-a3992761c068"
              }
            ]
          },
          {
            "title": "Circumstances of the Death Section",
            "code": {
              "coding": [
                {
                  "system": "http://hl7.org/fhir/us/mdi/CodeSystem/CodeSystem-mdi-codes",
                  "code": "circumstances",
                  "display": "Circumstances of the Death Section"
                }
              ]
            },
            "entry": [
              {
                "reference": "Location/287bbafc-6491-4920-bd22-0d612d75c355"
              },
              {
                "reference": "Observation/5db373a7-3b59-4ef9-b4ea-2bc1032fc80e"
              },
              {
                "reference": "Observation/95d4caf6-9e0c-4b8d-8a8d-7f76f0ca7ffb"
              },
              {
                "reference": "Observation/aa6235b4-2b6b-41ca-ab07-33a77e56b431"
              }
            ]
          },
          {
            "title": "Jurisdiction Section",
            "code": {
              "coding": [
                {
                  "system": "http://hl7.org/fhir/us/mdi/CodeSystem/CodeSystem-mdi-codes",
                  "code": "jurisdiction",
                  "display": "Jurisdiction Section"
                }
              ]
            },
            "entry": [
              {
                "reference": "Observation/d3f0252a-c532-4428-929a-14e9f38f0c5b"
              }
            ]
          },
          {
            "title": "Cause and Manner of Death Section",
            "code": {
              "coding": [
                {
                  "system": "http://hl7.org/fhir/us/mdi/CodeSystem/CodeSystem-mdi-codes",
                  "code": "cause-manner",
                  "display": "Cause and Manner of Death Section"
                }
              ]
            },
            "entry": [
              {
                "reference": "List/c7a9d082-16fb-43f7-b1d5-ba35619f8058"
              },
              {
                "reference": "Observation/11085e94-3c8d-4cb1-ac6f-0ff77c6e8b50"
              },
              {
                "reference": "Observation/63f226c8-c6fa-45df-ae85-b100c2a41c6c"
              },
              {
                "reference": "Observation/1b6b71ed-0d8d-4cdf-8574-9d68771a8aff"
              }
            ]
          },
          {
            "title": "Medical History Section",
            "code": {
              "coding": [
                {
                  "system": "http://hl7.org/fhir/us/mdi/CodeSystem/CodeSystem-mdi-codes",
                  "code": "medical-history",
                  "display": "Medical History Section"
                }
              ]
            },
            "emptyReason": {
              "coding": [
                {
                  "system": "http://terminology.hl7.org/CodeSystem/list-empty-reason",
                  "code": "unavailable",
                  "display": "Unavailable"
                }
              ],
              "text": "Decedent's medical history not available"
            }
          }
        ]
      }
    },
    {
      "fullUrl": "Observation/2e5e1eaf-fe30-4632-8c01-a3992761c068",
      "resource": {
        "resourceType": "Observation",
        "id": "2e5e1eaf-fe30-4632-8c01-a3992761c068",
        "meta": {
          "profile": [
            "http://hl7.org/fhir/us/odh/StructureDefinition/odh-UsualWork"
          ]
        },
        "status": "final",
        "category": [
          {
            "coding": [
              {
                "system": "http://terminology.hl7.org/CodeSystem/observation-category",
                "code": "social-history"
              }
            ]
          }
        ],
        "code": {
          "coding": [
            {
              "system": "http://loinc.org",
              "code": "21843-8",
              "display": "History of Usual occupation"
            }
          ]
        },
        "subject": {
          "reference": "Patient/3579bd54-f63a-402b-ae22-dbcf71526213"
        },
        "effectivePeriod": {
          "start": "2000-06-01",
          "end": "2021-05-20"
        },
        "valueCodeableConcept": {
          "coding": [
            {
              "system": "urn:oid:2.16.840.1.114222.4.5.314",
              "code": "3600",
              "display": "Nursing, psychiatric, and home health aides"
            },
            {
              "system": "urn:oid:2.16.840.1.114222.4.5.327",
              "code": "31-1014.00.007136",
              "display": "Certified Nursing Assistant (CNA) [Nursing Assistants]"
            }
          ]
        },
        "component": [
          {
            "code": {
              "coding": [
                {
                  "system": "http://loinc.org",
                  "code": "21844-6",
                  "display": "History of Usual industry"
                }
              ]
            },
            "valueCodeableConcept": {
              "coding": [
                {
                  "system": "urn:oid:2.16.840.1.114222.4.5.315",
                  "code": "8270",
                  "display": "Nursing care facilities"
                }
              ]
            }
          },
          {
            "code": {
              "coding": [
                {
                  "system": "http://loinc.org",
                  "code": "74163-7",
                  "display": "Usual occupation duration"
                }
              ]
            },
            "valueQuantity": {
              "value": 21,
              "unit": "year",
              "system": "http://unitsofmeasure.org",
              "code": "a"
            }
          }
        ]
      }
    },
    {
      "fullUrl": "Location/287bbafc-6491-4920-bd22-0d612d75c355",
      "resource": {
        "resourceType": "Location",
        "id": "287bbafc-6491-4920-bd22-0d612d75c355",
        "meta": {
          "profile": [
            "http://hl7.org/fhir/us/core/StructureDefinition/us-core-location"
          ]
        },
        "identifier": [
          {
            "system": "http://www.acme.org/location",
            "value": "29"
          }
        ],
        "status": "active",
        "name": "Atlanta GA Death Location - Freeman",
        "address": {
          "use": "home",
          "type": "physical",
          "line": [
            "400 Windstream Street"
          ],
          "city": "Atlanta",
          "district": "Fulton County",
          "state": "GA",
          "country": "USA"
        }
      }
    },
    {
      "fullUrl": "Observation/5db373a7-3b59-4ef9-b4ea-2bc1032fc80e",
      "resource": {
        "resourceType": "Observation",
        "id": "5db373a7-3b59-4ef9-b4ea-2bc1032fc80e",
        "meta": {
          "profile": [
            "http://hl7.org/fhir/us/mdi/StructureDefinition/Observation-death-injury-at-work"
          ]
        },
        "status": "final",
        "code": {
          "coding": [
            {
              "system": "http://loinc.org",
              "code": "69444-8",
              "display": "Did death result from injury at work"
            }
          ]
        },
        "subject": {
          "reference": "Patient/3579bd54-f63a-402b-ae22-dbcf71526213"
        },
        "valueCodeableConcept": {
          "coding": [
            {
              "system": "http://terminology.hl7.org/CodeSystem/v2-0136",
              "code": "N",
              "display": "No"
            }
          ]
        }
      }
    },
    {
      "fullUrl": "Observation/95d4caf6-9e0c-4b8d-8a8d-7f76f0ca7ffb",
      "resource": {
        "resourceType": "Observation",
        "id": "95d4caf6-9e0c-4b8d-8a8d-7f76f0ca7ffb",
        "meta": {
          "profile": [
            "http://hl7.org/fhir/us/mdi/StructureDefinition/Observation-tobacco-use-contributed-to-death"
          ]
        },
        "status": "final",
        "code": {
          "coding": [
            {
              "system": "http://loinc.org",
              "code": "69443-0",
              "display": "Did tobacco use contribute to death"
            }
          ]
        },
        "subject": {
          "reference": "Patient/3579bd54-f63a-402b-ae22-dbcf71526213"
        },
        "valueCodeableConcept": {
          "coding": [
            {
              "system": "http://snomed.info/sct",
              "code": "373067005",
              "display": "No"
            }
          ]
        }
      }
    },
    {
      "fullUrl": "Observation/aa6235b4-2b6b-41ca-ab07-33a77e56b431",
      "resource": {
        "resourceType": "Observation",
        "id": "aa6235b4-2b6b-41ca-ab07-33a77e56b431",
        "meta": {
          "profile": [
            "http://hl7.org/fhir/us/mdi/StructureDefinition/Observation-decedent-pregnancy"
          ]
        },
        "status": "final",
        "code": {
          "coding": [
            {
              "system": "http://loinc.org",
              "code": "69442-2",
              "display": "Timing of recent pregnancy in relation to death"
            }
          ]
        },
        "subject": {
          "reference": "Patient/3579bd54-f63a-402b-ae22-dbcf71526213"
        },
        "valueCodeableConcept": {
          "coding": [
            {
              "system": "http://terminology.hl7.org/CodeSystem/v3-NullFlavor",
              "code": "NA",
              "display": "Not applicable"
            }
          ]
        }
      }
    },
    {
      "fullUrl": "Observation/d3f0252a-c532-4428-929a-14e9f38f0c5b",
      "resource": {
        "resourceType": "Observation",
        "id": "d3f0252a-c532-4428-929a-14e9f38f0c5b",
        "meta": {
          "profile": [
            "http://hl7.org/fhir/us/mdi/StructureDefinition/Observation-death-date"
          ]
        },
        "extension": [
          {
            "url": "http://hl7.org/fhir/us/mdi/StructureDefinition/Extension-observation-location",
            "valueReference": {
              "reference": "Location/287bbafc-6491-4920-bd22-0d612d75c355"
            }
          }
        ],
        "status": "final",
        "code": {
          "coding": [
            {
              "system": "http://loinc.org",
              "code": "81956-5",
              "display": "Date and time of death [TimeStamp]"
            }
          ]
        },
        "subject": {
          "reference": "Patient/3579bd54-f63a-402b-ae22-dbcf71526213"
        },
        "effectiveDateTime": "2022-01-08T15:30:00-05:00",
        "valueDateTime": "2022-01-08T14:04:00-05:00",
        "method": {
          "coding": [
            {
              "system": "http://hl7.org/fhir/us/mdi/CodeSystem/CodeSystem-mdi-codes",
              "code": "exact",
              "display": "Exact"
            }
          ]
        },
        "component": [
          {
            "code": {
              "coding": [
                {
                  "system": "http://loinc.org",
                  "code": "80616-6",
                  "display": "Date and time pronounced dead [US Standard Certificate of Death]"
                }
              ]
            },
            "valueDateTime": "2022-01-08T15:30:00-05:00"
          }
        ]
      }
    },
    {
      "fullUrl": "List/c7a9d082-16fb-43f7-b1d5-ba35619f8058",
      "resource": {
        "resourceType": "List",
        "id": "c7a9d082-16fb-43f7-b1d5-ba35619f8058",
        "meta": {
          "profile": [
            "http://hl7.org/fhir/us/mdi/StructureDefinition/List-cause-of-death-pathway"
          ]
        },
        "status": "current",
        "mode": "snapshot",
        "subject": {
          "reference": "Patient/3579bd54-f63a-402b-ae22-dbcf71526213"
        },
        "source": {
          "reference": "Practitioner/dd618776-72d8-4572-88b7-045837554fe3"
        },
        "entry": [
          {
            "item": {
              "reference": "Observation/1793308a-6af5-4584-8629-5bef0b9f2ba2"
            }
          },
          {
            "item": {
              "reference": "Observation/c3ff6bae-c20c-497b-940b-195bab660127"
            }
          },
          {
            "item": {
              "reference": "Observation/27074b9f-85f0-444a-b2a7-03c3aef8653c"
            }
          },
          {
            "item": {
              "reference": "Observation/6fd54897-62ae-4fd6-8d3f-a86d22d1b36d"
            }
          },
          {
            "item": {
              "reference": "Observation/8379326f-40f4-4e5e-9d35-c6b6c0353384"
            }
          }
        ]
      }
    },
    {
      "fullUrl": "Observation/1793308a-6af5-4584-8629-5bef0b9f2ba2",
      "resource": {
        "resourceType": "Observation",
        "id": "1793308a-6af5-4584-8629-5bef0b9f2ba2",
        "meta": {
          "profile": [
            "http://hl7.org/fhir/us/mdi/StructureDefinition/Observation-cause-of-death-condition"
          ]
        },
        "status": "final",
        "code": {
          "coding": [
            {
              "system": "http://loinc.org",
              "code": "69453-9",
              "display": "Cause of death [US Standard Certificate of Death]"
            }
          ]
        },
        "subject": {
          "reference": "Patient/3579bd54-f63a-402b-ae22-dbcf71526213"
        },
        "valueCodeableConcept": {
          "text": "Fentanyl toxicity"
        },
        "component": [
          {
            "code": {
              "coding": [
                {
                  "system": "http://loinc.org",
                  "code": "69440-6",
                  "display": "Disease onset to death interval"
                }
              ]
            },
            "valueString": "minutes to hours"
          }
        ]
      }
    },
    {
      "fullUrl": "Observation/c3ff6bae-c20c-497b-940b-195bab660127",
      "resource": {
        "resourceType": "Observation",
        "id": "c3ff6bae-c20c-497b-940b-195bab660127",
        "meta": {
          "profile": [
            "http://hl7.org/fhir/us/mdi/StructureDefinition/Observation-cause-of-death-condition"
          ]
        },
        "status": "final",
        "code": {
          "coding": [
            {
              "system": "http://loinc.org",
              "code": "69453-9",
              "display": "Cause of death [US Standard Certificate of Death]"
            }
          ]
        },
        "subject": {
          "reference": "Patient/3579bd54-f63a-402b-ae22-dbcf71526213"
        },
        "valueCodeableConcept": {
          "text": "Fentanyl toxicity"
        },
        "component": [
          {
            "code": {
              "coding": [
                {
                  "system": "http://loinc.org",
                  "code": "69440-6",
                  "display": "Disease onset to death interval"
                }
              ]
            },
            "valueString": "minutes to hours"
          }
        ]
      }
    },
    {
      "fullUrl": "Observation/27074b9f-85f0-444a-b2a7-03c3aef8653c",
      "resource": {
        "resourceType": "Observation",
        "id": "27074b9f-85f0-444a-b2a7-03c3aef8653c",
        "meta": {
          "profile": [
            "http://hl7.org/fhir/us/mdi/StructureDefinition/Observation-cause-of-death-condition"
          ]
        },
        "status": "final",
        "code": {
          "coding": [
            {
              "system": "http://loinc.org",
              "code": "69453-9",
              "display": "Cause of death [US Standard Certificate of Death]"
            }
          ]
        },
        "subject": {
          "reference": "Patient/3579bd54-f63a-402b-ae22-dbcf71526213"
        },
        "valueCodeableConcept": {
          "text": "Fentanyl toxicity"
        },
        "component": [
          {
            "code": {
              "coding": [
                {
                  "system": "http://loinc.org",
                  "code": "69440-6",
                  "display": "Disease onset to death interval"
                }
              ]
            },
            "valueString": "minutes to hours"
          }
        ]
      }
    },
    {
      "fullUrl": "Observation/6fd54897-62ae-4fd6-8d3f-a86d22d1b36d",
      "resource": {
        "resourceType": "Observation",
        "id": "6fd54897-62ae-4fd6-8d3f-a86d22d1b36d",
        "meta": {
          "profile": [
            "http://hl7.org/fhir/us/mdi/StructureDefinition/Observation-cause-of-death-condition"
          ]
        },
        "status": "final",
        "code": {
          "coding": [
            {
              "system": "http://loinc.org",
              "code": "69453-9",
              "display": "Cause of death [US Standard Certificate of Death]"
            }
          ]
        },
        "subject": {
          "reference": "Patient/3579bd54-f63a-402b-ae22-dbcf71526213"
        },
        "valueCodeableConcept": {
          "text": "Fentanyl toxicity"
        },
        "component": [
          {
            "code": {
              "coding": [
                {
                  "system": "http://loinc.org",
                  "code": "69440-6",
                  "display": "Disease onset to death interval"
                }
              ]
            },
            "valueString": "minutes to hours"
          }
        ]
      }
    },
    {
      "fullUrl": "Observation/8379326f-40f4-4e5e-9d35-c6b6c0353384",
      "resource": {
        "resourceType": "Observation",
        "id": "8379326f-40f4-4e5e-9d35-c6b6c0353384",
        "meta": {
          "profile": [
            "http://hl7.org/fhir/us/mdi/StructureDefinition/Observation-cause-of-death-condition"
          ]
        },
        "status": "final",
        "code": {
          "coding": [
            {
              "system": "http://loinc.org",
              "code": "69453-9",
              "display": "Cause of death [US Standard Certificate of Death]"
            }
          ]
        },
        "subject": {
          "reference": "Patient/3579bd54-f63a-402b-ae22-dbcf71526213"
        },
        "valueCodeableConcept": {
          "text": "Fentanyl toxicity"
        },
        "component": [
          {
            "code": {
              "coding": [
                {
                  "system": "http://loinc.org",
                  "code": "69440-6",
                  "display": "Disease onset to death interval"
                }
              ]
            },
            "valueString": "minutes to hours"
          }
        ]
      }
    },
    {
      "fullUrl": "Observation/11085e94-3c8d-4cb1-ac6f-0ff77c6e8b50",
      "resource": {
        "resourceType": "Observation",
        "id": "11085e94-3c8d-4cb1-ac6f-0ff77c6e8b50",
        "meta": {
          "profile": [
            "http://hl7.org/fhir/us/mdi/StructureDefinition/Observation-condition-contributing-to-death"
          ]
        },
        "status": "final",
        "code": {
          "coding": [
            {
              "system": "http://loinc.org",
              "code": "69441-4",
              "display": "Other significant causes or conditions of death"
            }
          ]
        },
        "subject": {
          "reference": "Patient/3579bd54-f63a-402b-ae22-dbcf71526213"
        },
        "performer": [
          {
            "reference": "Practitioner/dd618776-72d8-4572-88b7-045837554fe3"
          }
        ],
        "valueCodeableConcept": {
          "text": "Hypertensive heart disease"
        }
      }
    },
    {
      "fullUrl": "Observation/63f226c8-c6fa-45df-ae85-b100c2a41c6c",
      "resource": {
        "resourceType": "Observation",
        "id": "63f226c8-c6fa-45df-ae85-b100c2a41c6c",
        "meta": {
          "profile": [
            "http://hl7.org/fhir/us/mdi/StructureDefinition/Observation-manner-of-death"
          ]
        },
        "status": "final",
        "code": {
          "coding": [
            {
              "system": "http://loinc.org",
              "code": "69449-7",
              "display": "Manner of death"
            }
          ]
        },
        "subject": {
          "reference": "Patient/3579bd54-f63a-402b-ae22-dbcf71526213"
        },
        "performer": [
          {
            "reference": "Patient/3579bd54-f63a-402b-ae22-dbcf71526213"
          }
        ],
        "valueCodeableConcept": {
          "coding": [
            {
              "system": "http://snomed.info/sct",
              "code": "7878000",
              "display": "Accidental death (event)"
            }
          ]
        }
      }
    },
    {
      "fullUrl": "Observation/1b6b71ed-0d8d-4cdf-8574-9d68771a8aff",
      "resource": {
        "resourceType": "Observation",
        "id": "1b6b71ed-0d8d-4cdf-8574-9d68771a8aff",
        "meta": {
          "profile": [
            "http://hl7.org/fhir/us/mdi/StructureDefinition/Observation-how-death-injury-occurred"
          ]
        },
        "status": "final",
        "code": {
          "coding": [
            {
              "system": "http://loinc.org",
              "code": "11374-6",
              "display": "Injury incident description Narrative"
            }
          ]
        },
        "subject": {
          "reference": "Patient/3579bd54-f63a-402b-ae22-dbcf71526213"
        },
        "effectiveDateTime": "2018-02-19T16:48:06-05:00",
        "performer": [
          {
            "reference": "Practitioner/dd618776-72d8-4572-88b7-045837554fe3"
          }
        ],
        "valueString": "Ingested counterfeit medication"
      }
    }
  ]
}