{
  "resourceType": "Bundle",
  "id": "6951910e-a994-11ed-afa1-0242ac120002",
  "meta": {
    "profile": [
      "http://hl7.org/fhir/us/mdi/StructureDefinition/Bundle-document-mdi-and-edrs"
    ]
  },
  "identifier": {
    "system": "urn:ietf:rfc:3986",
    "value": "urn:uuid:933dde44f7664b03a20b6324f23986c0"
  },
  "type": "document",
  "_type": {
    "extension": [
      {
        "url": "http://config.raven.app/code",
        "valueCode": "reference"
      }
    ]
  },
  "timestamp": "2023-10-23T23:38:10.943124-04:00",
  "entry": [
    {
      "fullUrl": "Composition/d5eb30e7-f656-424c-8902-ba5c95797872",
      "resource": {
        "resourceType": "Composition",
        "id": "d5eb30e7-f656-424c-8902-ba5c95797872",
        "meta": {
          "profile": [
            "http://hl7.org/fhir/us/mdi/StructureDefinition/Composition-mdi-and-edrs"
          ]
        },
        "extension": [
          {
            "url": "http://hl7.org/fhir/us/mdi/StructureDefinition/Extension-tracking-number",
            "valueIdentifier": {
              "type": {
                "coding": [
                  {
                    "system": "http://hl7.org/fhir/us/mdi/CodeSystem/CodeSystem-mdi-codes",
                    "code": "mdi-case-number",
                    "display": "MDI Case Number"
                  }
                ]
              },
              "system": "urn:connectathon_jan22:test",
              "value": "ME21-113"
            }
          }
        ],
        "identifier": {
          "value": "a03eab8c-11e8-4d0c-ad2a-b385395e27de"
        },
        "status": "final",
        "type": {
          "coding": [
            {
              "system": "http://loinc.org",
              "code": "86807-5",
              "display": "Death administrative information Document"
            }
          ]
        },
        "subject": {
          "reference": "Patient/806c53c0-a993-11ed-afa1-0242ac120002"
        },
        "date": "2022-02-20",
        "author": [
          {
            "reference": "Practitioner/ac069540-a993-11ed-afa1-0242ac120002"
          }
        ],
        "title": "MDI to EDRS Composition",
        "attester": [
          {
            "mode": "official",
            "party": {
              "reference": "Practitioner/ac069540-a993-11ed-afa1-0242ac120002"
            }
          }
        ],
        "section": [
          {
            "title": "Additional Demographics Section",
            "code": {
              "coding": [
                {
                  "system": "http://hl7.org/fhir/us/mdi/CodeSystem/CodeSystem-mdi-codes",
                  "code": "demographics",
                  "display": "Additional Demographics Section"
                }
              ]
            },
            "text": {
              "status": "additional",
              "div": "<div xmlns=\"http://www.w3.org/1999/xhtml\">\n  <p>No additional demographic information</p>\n  </div>"
            }
          },
          {
            "title": "Circumstances of the Death Section",
            "code": {
              "coding": [
                {
                  "system": "http://hl7.org/fhir/us/mdi/CodeSystem/CodeSystem-mdi-codes",
                  "code": "circumstances",
                  "display": "Circumstances of the Death Section"
                }
              ]
            },
            "entry": [
              {
                "reference": "Location/00c78cce-a994-11ed-afa1-0242ac120002"
              },
              {
                "reference": "Observation/38bcabfa-a994-11ed-afa1-0242ac120002"
              },
              {
                "reference": "Observation/2ce05796-a994-11ed-afa1-0242ac120002"
              },
              {
                "reference": "Location/0affba40-a994-11ed-afa1-0242ac120002"
              }
            ]
          },
          {
            "title": "Jurisdiction Section",
            "code": {
              "coding": [
                {
                  "system": "http://hl7.org/fhir/us/mdi/CodeSystem/CodeSystem-mdi-codes",
                  "code": "jurisdiction",
                  "display": "Jurisdiction Section"
                }
              ]
            },
            "entry": [
              {
                "reference": "Observation/19026d5e-a994-11ed-afa1-0242ac120002"
              },
              {
                "reference": "Procedure/23145afa-a994-11ed-afa1-0242ac120002"
              }
            ]
          },
          {
            "title": "Cause and Manner of Death Section",
            "code": {
              "coding": [
                {
                  "system": "http://hl7.org/fhir/us/mdi/CodeSystem/CodeSystem-mdi-codes",
                  "code": "cause-manner",
                  "display": "Cause and Manner of Death Section"
                }
              ]
            },
            "entry": [
              {
                "reference": "Observation/b90b4a24-a993-11ed-afa1-0242ac120002"
              },
              {
                "reference": "Observation/c77a5528-a993-11ed-afa1-0242ac120002"
              },
              {
                "reference": "Observation/d4429ad6-a993-11ed-afa1-0242ac120002"
              },
              {
                "reference": "Observation/e7f0fd84-a993-11ed-afa1-0242ac120002"
              },
              {
                "reference": "Observation/f4185864-a993-11ed-afa1-0242ac120002"
              }
            ]
          },
          {
            "title": "Medical History Section",
            "code": {
              "coding": [
                {
                  "system": "http://hl7.org/fhir/us/mdi/CodeSystem/CodeSystem-mdi-codes",
                  "code": "medical-history",
                  "display": "Medical History Section"
                }
              ]
            },
            "text": {
              "status": "generated",
              "div": "Medical History is not available"
            },
            "emptyReason": {
              "coding": [
                {
                  "system": "http://terminology.hl7.org/CodeSystem/list-empty-reason",
                  "code": "unavailable",
                  "display": "Unavailable"
                }
              ]
            }
          },
          {
            "title": "Exam/Autopsy Section",
            "code": {
              "coding": [
                {
                  "system": "http://hl7.org/fhir/us/mdi/CodeSystem/CodeSystem-mdi-codes",
                  "code": "exam-autopsy",
                  "display": "Exam/Autopsy Section"
                }
              ]
            },
            "entry": [
              {
                "reference": "Observation/410ff8b6-a994-11ed-afa1-0242ac120002"
              }
            ]
          }
        ]
      }
    },
    {
      "fullUrl": "Patient/806c53c0-a993-11ed-afa1-0242ac120002",
      "resource": {
        "resourceType": "Patient",
        "id": "806c53c0-a993-11ed-afa1-0242ac120002",
        "meta": {
          "profile": [
            "http://hl7.org/fhir/us/core/StructureDefinition/us-core-patient"
          ]
        },
        "extension": [
          {
            "extension": [
              {
                "url": "ombCategory",
                "valueCoding": {
                  "system": "urn:oid:2.16.840.1.113883.6.238",
                  "code": "2028-9",
                  "display": "Asian"
                }
              },
              {
                "url": "detailed",
                "valueCoding": {
                  "system": "urn:oid:2.16.840.1.113883.6.238",
                  "code": "2029-7",
                  "display": "Asian Indian"
                }
              },
              {
                "url": "text",
                "valueString": "Asian Indian"
              }
            ],
            "url": "http://hl7.org/fhir/us/core/StructureDefinition/us-core-race"
          },
          {
            "extension": [
              {
                "url": "ombCategory",
                "valueCoding": {
                  "system": "urn:oid:2.16.840.1.113883.6.238",
                  "code": "2186-5",
                  "display": "Not Hispanic or Latino"
                }
              },
              {
                "url": "detailed",
                "valueCoding": {
                  "system": "urn:oid:2.16.840.1.113883.6.238",
                  "code": "2162-6",
                  "display": "Central American Indian"
                }
              },
              {
                "url": "text",
                "valueString": "Not Hispanic or Latino"
              }
            ],
            "url": "http://hl7.org/fhir/us/core/StructureDefinition/us-core-ethnicity"
          },
          {
            "url": "http://hl7.org/fhir/us/core/StructureDefinition/us-core-birthsex",
            "valueCode": "F"
          }
        ],
        "identifier": [
          {
            "use": "usual",
            "type": {
              "coding": [
                {
                  "system": "http://terminology.hl7.org/CodeSystem/v2-0203",
                  "code": "SB",
                  "display": "Social Beneficiary Identifier"
                }
              ]
            },
            "system": "http://hl7.org/fhir/sid/us-ssn",
            "value": "123456790"
          }
        ],
        "name": [
          {
            "family": "Freeman",
            "given": [
              "Alice",
              "J"
            ]
          }
        ],
        "telecom": [
          {
            "system": "phone",
            "value": "404-123-0022",
            "use": "home"
          },
          {
            "system": "email",
            "value": "raven@mdi.org",
            "use": "work"
          }
        ],
        "gender": "female",
        "birthDate": "1978-03-12",
        "deceasedDateTime": "2014-03-02",
        "address": [
          {
            "use": "home",
            "type": "physical",
            "line": [
              "5100 Peachtree Street",
              "Bldg4-12"
            ],
            "city": "Atlanta",
            "state": "GA",
            "postalCode": "09090",
            "country": "USA"
          }
        ]
      }
    },
    {
      "fullUrl": "Practitioner/ac069540-a993-11ed-afa1-0242ac120002",
      "resource": {
        "resourceType": "Practitioner",
        "id": "ac069540-a993-11ed-afa1-0242ac120002",
        "meta": {
          "profile": [
            "http://hl7.org/fhir/us/core/StructureDefinition/us-core-practitioner"
          ]
        },
        "identifier": [
          {
            "system": "http://hl7.org/fhir/sid/us-npi",
            "value": "3333445555"
          }
        ],
        "name": [
          {
            "use": "official",
            "family": "Jones",
            "given": [
              "Sam"
            ],
            "prefix": [
              "Dr"
            ]
          }
        ],
        "telecom": [
          {
            "system": "phone",
            "value": "134-456-7890",
            "use": "work"
          }
        ],
        "address": [
          {
            "use": "work",
            "type": "physical",
            "line": [
              "567 Coda Blvd"
            ],
            "city": "Atlanta",
            "district": "Fulton County",
            "state": "GA",
            "postalCode": "30318",
            "country": "USA"
          }
        ]
      }
    },
    {
      "fullUrl": "Location/00c78cce-a994-11ed-afa1-0242ac120002",
      "resource": {
        "resourceType": "Location",
        "id": "00c78cce-a994-11ed-afa1-0242ac120002",
        "meta": {
          "profile": [
            "http://hl7.org/fhir/us/mdi/StructureDefinition/Location-death"
          ]
        },
        "identifier": [
          {
            "system": "http://www.acme.org/location",
            "value": "29"
          }
        ],
        "status": "active",
        "name": "Atlanta GA Death Location - Freeman",
        "type": [
          {
            "coding": [
              {
                "system": "http://hl7.org/fhir/us/mdi/CodeSystem/CodeSystem-mdi-codes",
                "code": "death",
                "display": "Death Location"
              }
            ]
          }
        ],
        "address": {
          "use": "home",
          "type": "physical",
          "line": [
            "400 Windstream Street"
          ],
          "city": "Atlanta",
          "district": "Fulton County",
          "state": "GA",
          "country": "USA"
        }
      }
    },
    {
      "fullUrl": "Observation/38bcabfa-a994-11ed-afa1-0242ac120002",
      "resource": {
        "resourceType": "Observation",
        "id": "38bcabfa-a994-11ed-afa1-0242ac120002",
        "meta": {
          "profile": [
            "http://hl7.org/fhir/us/mdi/StructureDefinition/Observation-tobacco-use-contributed-to-death"
          ]
        },
        "status": "final",
        "code": {
          "coding": [
            {
              "system": "http://loinc.org",
              "code": "69443-0",
              "display": "Did tobacco use contribute to death"
            }
          ]
        },
        "subject": {
          "reference": "Patient/806c53c0-a993-11ed-afa1-0242ac120002"
        },
        "valueCodeableConcept": {
          "coding": [
            {
              "system": "http://snomed.info/sct",
              "code": "373067005",
              "display": "No"
            }
          ]
        }
      }
    },
    {
      "fullUrl": "Observation/2ce05796-a994-11ed-afa1-0242ac120002",
      "resource": {
        "resourceType": "Observation",
        "id": "2ce05796-a994-11ed-afa1-0242ac120002",
        "meta": {
          "profile": [
            "http://hl7.org/fhir/us/mdi/StructureDefinition/Observation-decedent-pregnancy"
          ]
        },
        "status": "final",
        "code": {
          "coding": [
            {
              "system": "http://loinc.org",
              "code": "69442-2",
              "display": "Timing of recent pregnancy in relation to death"
            }
          ]
        },
        "subject": {
          "reference": "Patient/806c53c0-a993-11ed-afa1-0242ac120002"
        },
        "valueCodeableConcept": {
          "coding": [
            {
              "system": "http://terminology.hl7.org/CodeSystem/v3-NullFlavor",
              "code": "NA",
              "display": "Not applicable"
            }
          ]
        }
      }
    },
    {
      "fullUrl": "Location/0affba40-a994-11ed-afa1-0242ac120002",
      "resource": {
        "resourceType": "Location",
        "id": "0affba40-a994-11ed-afa1-0242ac120002",
        "meta": {
          "profile": [
            "http://hl7.org/fhir/us/mdi/StructureDefinition/Location-injury"
          ]
        },
        "name": "Atlanta GA Injury Location",
        "type": [
          {
            "coding": [
              {
                "system": "http://hl7.org/fhir/us/mdi/CodeSystem/CodeSystem-mdi-codes",
                "code": "injury",
                "display": "Injury Location"
              }
            ]
          }
        ],
        "address": {
          "use": "home",
          "type": "physical",
          "line": [
            "400 Windstream Street"
          ],
          "city": "Atlanta",
          "district": "Fulton County",
          "state": "GA",
          "postalCode": "30318",
          "country": "USA"
        }
      }
    },
    {
      "fullUrl": "Observation/19026d5e-a994-11ed-afa1-0242ac120002",
      "resource": {
        "resourceType": "Observation",
        "id": "19026d5e-a994-11ed-afa1-0242ac120002",
        "meta": {
          "profile": [
            "http://hl7.org/fhir/us/mdi/StructureDefinition/Observation-death-date"
          ]
        },
        "status": "final",
        "code": {
          "coding": [
            {
              "system": "http://loinc.org",
              "code": "81956-5",
              "display": "Date and time of death [TimeStamp]"
            }
          ]
        },
        "subject": {
          "reference": "Patient/806c53c0-a993-11ed-afa1-0242ac120002"
        },
        "effectiveDateTime": "2022-01-08T15:30:00-05:00",
        "valueDateTime": "2022-01-08T14:04:00-05:00",
        "method": {
          "coding": [
            {
              "system": "http://hl7.org/fhir/us/mdi/CodeSystem/CodeSystem-mdi-codes",
              "code": "exact",
              "display": "Exact"
            }
          ]
        },
        "component": [
          {
            "code": {
              "coding": [
                {
                  "system": "http://loinc.org",
                  "code": "80616-6",
                  "display": "Date and time pronounced dead [US Standard Certificate of Death]"
                }
              ]
            },
            "valueDateTime": "2022-01-08T15:30:00-05:00"
          },
          {
            "code": {
              "coding": [
                {
                  "system": "http://loinc.org",
                  "code": "58332-8",
                  "display": "Location of death"
                }
              ]
            },
            "valueCodeableConcept": {
              "coding": [
                {
                  "system": "http://snomed.info/sct",
                  "code": "63238001",
                  "display": "Dead on arrival at hospital"
                }
              ]
            }
          }
        ]
      }
    },
    {
      "fullUrl": "Procedure/23145afa-a994-11ed-afa1-0242ac120002",
      "resource": {
        "resourceType": "Procedure",
        "id": "23145afa-a994-11ed-afa1-0242ac120002",
        "meta": {
          "profile": [
            "http://hl7.org/fhir/us/mdi/StructureDefinition/Procedure-death-certification"
          ]
        },
        "status": "completed",
        "category": {
          "coding": [
            {
              "system": "http://snomed.info/sct",
              "code": "103693007",
              "display": "Diagnostic procedure"
            }
          ]
        },
        "code": {
          "coding": [
            {
              "system": "http://snomed.info/sct",
              "code": "308646001",
              "display": "Death certification"
            }
          ]
        },
        "subject": {
          "reference": "Patient/806c53c0-a993-11ed-afa1-0242ac120002"
        },
        "performedDateTime": "2022-01-08T15:30:00-05:00",
        "performer": [
          {
            "function": {
              "coding": [
                {
                  "system": "http://snomed.info/sct",
                  "code": "455381000124109",
                  "display": "Medical Examiner/Coroner-On the basis of examination, and/or investigation, in my opinion, death occurred at the time, date, and place, and due to the cause(s) and manner stated"
                }
              ]
            },
            "actor": {
              "reference": "Practitioner/ac069540-a993-11ed-afa1-0242ac120002"
            }
          }
        ]
      }
    },
    {
      "fullUrl": "Observation/b90b4a24-a993-11ed-afa1-0242ac120002",
      "resource": {
        "resourceType": "Observation",
        "id": "b90b4a24-a993-11ed-afa1-0242ac120002",
        "meta": {
          "profile": [
            "http://hl7.org/fhir/us/mdi/StructureDefinition/Observation-cause-of-death-part1"
          ]
        },
        "status": "final",
        "code": {
          "coding": [
            {
              "system": "http://loinc.org",
              "code": "69453-9",
              "display": "Cause of death [US Standard Certificate of Death]"
            }
          ]
        },
        "subject": {
          "reference": "Patient/806c53c0-a993-11ed-afa1-0242ac120002"
        },
        "performer": [
          {
            "reference": "Practitioner/ac069540-a993-11ed-afa1-0242ac120002"
          }
        ],
        "valueCodeableConcept": {
          "text": "Fentanyl toxicity"
        },
        "component": [
          {
            "code": {
              "coding": [
                {
                  "system": "http://hl7.org/fhir/us/mdi/CodeSystem/CodeSystem-local-component-codes",
                  "code": "lineNumber",
                  "display": "lineNumber"
                }
              ]
            },
            "valueInteger": 1
          },
          {
            "code": {
              "coding": [
                {
                  "system": "http://loinc.org",
                  "code": "69440-6",
                  "display": "Disease onset to death interval"
                }
              ]
            },
            "valueString": "minutes to hours"
          }
        ]
      }
    },
    {
      "fullUrl": "Observation/c77a5528-a993-11ed-afa1-0242ac120002",
      "resource": {
        "resourceType": "Observation",
        "id": "c77a5528-a993-11ed-afa1-0242ac120002",
        "meta": {
          "profile": [
            "http://hl7.org/fhir/us/mdi/StructureDefinition/Observation-cause-of-death-part1"
          ]
        },
        "status": "final",
        "code": {
          "coding": [
            {
              "system": "http://loinc.org",
              "code": "69453-9",
              "display": "Cause of death [US Standard Certificate of Death]"
            }
          ]
        },
        "subject": {
          "reference": "Patient/806c53c0-a993-11ed-afa1-0242ac120002"
        },
        "performer": [
          {
            "reference": "Practitioner/ac069540-a993-11ed-afa1-0242ac120002"
          }
        ],
        "valueCodeableConcept": {
          "text": "Liver failure"
        },
        "component": [
          {
            "code": {
              "coding": [
                {
                  "system": "http://hl7.org/fhir/us/mdi/CodeSystem/CodeSystem-local-component-codes",
                  "code": "lineNumber",
                  "display": "lineNumber"
                }
              ]
            },
            "valueInteger": 2
          },
          {
            "code": {
              "coding": [
                {
                  "system": "http://loinc.org",
                  "code": "69440-6",
                  "display": "Disease onset to death interval"
                }
              ]
            },
            "valueString": "1 hour"
          }
        ]
      }
    },
    {
      "fullUrl": "Observation/d4429ad6-a993-11ed-afa1-0242ac120002",
      "resource": {
        "resourceType": "Observation",
        "id": "d4429ad6-a993-11ed-afa1-0242ac120002",
        "meta": {
          "profile": [
            "http://hl7.org/fhir/us/mdi/StructureDefinition/Observation-contributing-cause-of-death-part2"
          ]
        },
        "status": "final",
        "code": {
          "coding": [
            {
              "system": "http://loinc.org",
              "code": "69441-4",
              "display": "Other significant causes or conditions of death"
            }
          ]
        },
        "subject": {
          "reference": "Patient/806c53c0-a993-11ed-afa1-0242ac120002"
        },
        "performer": [
          {
            "reference": "Practitioner/ac069540-a993-11ed-afa1-0242ac120002"
          }
        ],
        "valueCodeableConcept": {
          "text": "Hypertensive heart disease"
        }
      }
    },
    {
      "fullUrl": "Observation/e7f0fd84-a993-11ed-afa1-0242ac120002",
      "resource": {
        "resourceType": "Observation",
        "id": "e7f0fd84-a993-11ed-afa1-0242ac120002",
        "meta": {
          "profile": [
            "http://hl7.org/fhir/us/mdi/StructureDefinition/Observation-manner-of-death"
          ]
        },
        "status": "final",
        "code": {
          "coding": [
            {
              "system": "http://loinc.org",
              "code": "69449-7",
              "display": "Manner of death"
            }
          ]
        },
        "subject": {
          "reference": "Patient/806c53c0-a993-11ed-afa1-0242ac120002"
        },
        "performer": [
          {
            "reference": "Practitioner/ac069540-a993-11ed-afa1-0242ac120002"
          }
        ],
        "valueCodeableConcept": {
          "coding": [
            {
              "system": "http://snomed.info/sct",
              "code": "7878000",
              "display": "Accidental Death"
            }
          ]
        }
      }
    },
    {
      "fullUrl": "Observation/f4185864-a993-11ed-afa1-0242ac120002",
      "resource": {
        "resourceType": "Observation",
        "id": "f4185864-a993-11ed-afa1-0242ac120002",
        "meta": {
          "profile": [
            "http://hl7.org/fhir/us/mdi/StructureDefinition/Observation-how-death-injury-occurred"
          ]
        },
        "status": "final",
        "code": {
          "coding": [
            {
              "system": "http://loinc.org",
              "code": "11374-6",
              "display": "Injury incident description Narrative"
            }
          ]
        },
        "subject": {
          "reference": "Patient/806c53c0-a993-11ed-afa1-0242ac120002"
        },
        "_effectiveDateTime": {
          "extension": [
            {
              "extension": [
                {
                  "url": "http://hl7.org/fhir/us/vrdr/StructureDefinition/Date-Year",
                  "valueUnsignedInt": 2022
                },
                {
                  "url": "http://hl7.org/fhir/us/vrdr/StructureDefinition/Date-Month",
                  "valueUnsignedInt": 2
                },
                {
                  "url": "http://hl7.org/fhir/us/vrdr/StructureDefinition/Date-Day",
                  "valueUnsignedInt": 1
                },
                {
                  "url": "http://hl7.org/fhir/us/vrdr/StructureDefinition/Date-Time",
                  "valueTime": "15:34:20"
                }
              ],
              "url": "http://hl7.org/fhir/us/vrdr/StructureDefinition/PartialDateTime"
            }
          ]
        },
        "performer": [
          {
            "reference": "Practitioner/ac069540-a993-11ed-afa1-0242ac120002"
          }
        ],
        "valueCodeableConcept": {
          "text": "Ingested counterfeit medication"
        },
        "component": [
          {
            "code": {
              "coding": [
                {
                  "system": "http://loinc.org",
                  "code": "69450-5"
                }
              ]
            },
            "valueCodeableConcept": {
              "text": "Private House"
            }
          }
        ]
      }
    },
    {
      "fullUrl": "Observation/410ff8b6-a994-11ed-afa1-0242ac120002",
      "resource": {
        "resourceType": "Observation",
        "id": "410ff8b6-a994-11ed-afa1-0242ac120002",
        "meta": {
          "profile": [
            "http://hl7.org/fhir/us/mdi/StructureDefinition/Observation-autopsy-performed-indicator"
          ]
        },
        "status": "final",
        "code": {
          "coding": [
            {
              "system": "http://loinc.org",
              "code": "85699-7",
              "display": "Autopsy was performed"
            }
          ]
        },
        "subject": {
          "reference": "Patient/806c53c0-a993-11ed-afa1-0242ac120002"
        },
        "valueCodeableConcept": {
          "coding": [
            {
              "system": "http://terminology.hl7.org/CodeSystem/v2-0136",
              "code": "Y",
              "display": "Yes"
            }
          ]
        },
        "component": [
          {
            "code": {
              "coding": [
                {
                  "system": "http://loinc.org",
                  "code": "69436-4"
                }
              ]
            },
            "valueCodeableConcept": {
              "coding": [
                {
                  "system": "http://terminology.hl7.org/CodeSystem/v3-NullFlavor",
                  "code": "NA",
                  "display": "not applicable"
                }
              ]
            }
          }
        ]
      }
    }
  ]
}