{
  "resourceType": "Bundle",
  "meta": {
    "profile": [
      "http://hl7.org/fhir/us/mdi/StructureDefinition/Bundle-document-mdi-to-edrs"
    ]
  },
  "identifier": {
    "system": "urn:ietf:rfc:3986",
    "value": "urn:uuid:933dde44f7664b03a20b6324f23986c0"
  },
  "type": "document",
  "timestamp": "2022-03-23T14:03:15.752313-04:00",
  "entry": [
    {
      "fullUrl": "Composition/1a7d30b7-97e6-4a96-b219-1baccb7a072e",
      "resource": {
        "resourceType": "Composition",
        "id": "1a7d30b7-97e6-4a96-b219-1baccb7a072e",
        "meta": {
          "profile": [
            "http://hl7.org/fhir/us/mdi/StructureDefinition/Composition-mdi-to-edrs"
          ]
        },
        "extension": [
          {
            "url": "http://hl7.org/fhir/us/mdi/StructureDefinition/Extension-tracking-number",
            "valueIdentifier": {
              "type": {
                "coding": [
                  {
                    "system": "http://hl7.org/fhir/us/mdi/CodeSystem/CodeSystem-mdi-codes",
                    "code": "mdi-case-number",
                    "display": "MDI Case Number"
                  }
                ]
              },
              "value": "Case1234"
            }
          }
        ],
        "identifier": {
          "value": "a03eab8c-11e8-4d0c-ad2a-b385395e27de"
        },
        "status": "final",
        "type": {
          "coding": [
            {
              "system": "http://loinc.org",
              "code": "86807-5"
            }
          ]
        },
        "subject": {
          "reference": "Patient/bc172aba-6aa0-49a4-9495-e71eaefdbafb"
        },
        "date": "2022-02-20",
        "author": [
          {
            "reference": "Practitioner/c0f8825e-2753-46da-bb0f-35d9a53bb072"
          }
        ],
        "title": "MDI to EDRS Composition",
        "section": [
          {
            "title": "Demographics Section",
            "code": {
              "coding": [
                {
                  "system": "http://hl7.org/fhir/us/mdi/CodeSystem/CodeSystem-mdi-codes",
                  "code": "demographics",
                  "display": "Demographics Section"
                }
              ]
            },
            "entry": [
              {
                "reference": "Observation/be23ab38-fe11-4e42-8a5c-91bef0091a0f"
              }
            ]
          },
          {
            "title": "Circumstances of the Death Section",
            "code": {
              "coding": [
                {
                  "system": "http://hl7.org/fhir/us/mdi/CodeSystem/CodeSystem-mdi-codes",
                  "code": "circumstances",
                  "display": "Circumstances of the Death Section"
                }
              ]
            },
            "entry": [
              {
                "reference": "Location/c05ad86b-32cf-4f38-962d-5246d41b2b0a"
              },
              {
                "reference": "Observation/1f16e51a-5dd0-415d-8fad-c1d937e9d81c"
              },
              {
                "reference": "Observation/74e4393f-d9a6-4377-81f0-ca533a178034"
              },
              {
                "reference": "Observation/9bf6c107-fcf9-4feb-8ce1-2d07e00b5d3d"
              }
            ]
          },
          {
            "title": "Jurisdiction Section",
            "code": {
              "coding": [
                {
                  "system": "http://hl7.org/fhir/us/mdi/CodeSystem/CodeSystem-mdi-codes",
                  "code": "jurisdiction",
                  "display": "Jurisdiction Section"
                }
              ]
            },
            "entry": [
              {
                "reference": "Observation/0396cc89-49e1-4119-a624-f2588ca2ded9"
              }
            ]
          },
          {
            "title": "Cause and Manner of Death Section",
            "code": {
              "coding": [
                {
                  "system": "http://hl7.org/fhir/us/mdi/CodeSystem/CodeSystem-mdi-codes",
                  "code": "cause-manner",
                  "display": "Cause and Manner of Death Section"
                }
              ]
            },
            "entry": [
              {
                "reference": "List/c206fb92-e65a-440d-aab6-2cabf93b65ae"
              },
              {
                "reference": "Observation/c0923941-5565-4772-aebd-995c79dcd08d"
              },
              {
                "reference": "Observation/8fb1e31d-8d9f-4501-ae65-8925545822b7"
              },
              {
                "reference": "Observation/00c477d9-493b-4949-adb1-6746822a0843"
              }
            ]
          },
          {
            "title": "Medical History Section",
            "code": {
              "coding": [
                {
                  "system": "http://hl7.org/fhir/us/mdi/CodeSystem/CodeSystem-mdi-codes",
                  "code": "medical-history",
                  "display": "Medical History Section"
                }
              ]
            },
            "emptyReason": {
              "coding": [
                {
                  "system": "http://terminology.hl7.org/CodeSystem/list-empty-reason",
                  "code": "unavailable",
                  "display": "Unavailable"
                }
              ],
              "text": "Decedent's medical history not available"
            }
          }
        ]
      }
    },
    {
      "fullUrl": "Observation/be23ab38-fe11-4e42-8a5c-91bef0091a0f",
      "resource": {
        "resourceType": "Observation",
        "id": "be23ab38-fe11-4e42-8a5c-91bef0091a0f",
        "meta": {
          "profile": [
            "http://hl7.org/fhir/us/odh/StructureDefinition/odh-UsualWork"
          ]
        },
        "status": "final",
        "category": [
          {
            "coding": [
              {
                "system": "http://terminology.hl7.org/CodeSystem/observation-category",
                "code": "social-history"
              }
            ]
          }
        ],
        "code": {
          "coding": [
            {
              "system": "http://loinc.org",
              "code": "21843-8",
              "display": "History of Usual occupation"
            }
          ]
        },
        "subject": {
          "reference": "Patient/bc172aba-6aa0-49a4-9495-e71eaefdbafb"
        },
        "effectivePeriod": {
          "start": "2000-06-01",
          "end": "2021-05-20"
        },
        "valueCodeableConcept": {
          "coding": [
            {
              "system": "urn:oid:2.16.840.1.114222.4.5.314",
              "code": "3600",
              "display": "Nursing, psychiatric, and home health aides"
            },
            {
              "system": "urn:oid:2.16.840.1.114222.4.5.327",
              "code": "31-1014.00.007136",
              "display": "Certified Nursing Assistant (CNA) [Nursing Assistants]"
            }
          ]
        },
        "component": [
          {
            "code": {
              "coding": [
                {
                  "system": "http://loinc.org",
                  "code": "21844-6",
                  "display": "History of Usual industry"
                }
              ]
            },
            "valueCodeableConcept": {
              "coding": [
                {
                  "system": "urn:oid:2.16.840.1.114222.4.5.315",
                  "code": "8270",
                  "display": "Nursing care facilities"
                }
              ]
            }
          },
          {
            "code": {
              "coding": [
                {
                  "system": "http://loinc.org",
                  "code": "74163-7",
                  "display": "Usual occupation duration"
                }
              ]
            },
            "valueQuantity": {
              "value": 21,
              "unit": "year",
              "system": "http://unitsofmeasure.org",
              "code": "a"
            }
          }
        ]
      }
    },
    {
      "fullUrl": "Location/c05ad86b-32cf-4f38-962d-5246d41b2b0a",
      "resource": {
        "resourceType": "Location",
        "id": "c05ad86b-32cf-4f38-962d-5246d41b2b0a",
        "meta": {
          "profile": [
            "http://hl7.org/fhir/us/core/StructureDefinition/us-core-location"
          ]
        },
        "identifier": [
          {
            "system": "http://www.acme.org/location",
            "value": "29"
          }
        ],
        "status": "active",
        "name": "Atlanta GA Death Location - Freeman",
        "address": {
          "use": "home",
          "type": "physical",
          "line": [
            "400 Windstream Street"
          ],
          "city": "Atlanta",
          "district": "Fulton County",
          "state": "GA",
          "country": "USA"
        }
      }
    },
    {
      "fullUrl": "Observation/1f16e51a-5dd0-415d-8fad-c1d937e9d81c",
      "resource": {
        "resourceType": "Observation",
        "id": "1f16e51a-5dd0-415d-8fad-c1d937e9d81c",
        "meta": {
          "profile": [
            "http://hl7.org/fhir/us/mdi/StructureDefinition/Observation-death-injury-at-work"
          ]
        },
        "status": "final",
        "code": {
          "coding": [
            {
              "system": "http://loinc.org",
              "code": "69444-8",
              "display": "Did death result from injury at work"
            }
          ]
        },
        "subject": {
          "reference": "Patient/bc172aba-6aa0-49a4-9495-e71eaefdbafb"
        },
        "valueCodeableConcept": {
          "coding": [
            {
              "system": "http://terminology.hl7.org/CodeSystem/v2-0136",
              "code": "N",
              "display": "No"
            }
          ]
        }
      }
    },
    {
      "fullUrl": "Observation/74e4393f-d9a6-4377-81f0-ca533a178034",
      "resource": {
        "resourceType": "Observation",
        "id": "74e4393f-d9a6-4377-81f0-ca533a178034",
        "meta": {
          "profile": [
            "http://hl7.org/fhir/us/mdi/StructureDefinition/Observation-tobacco-use-contributed-to-death"
          ]
        },
        "status": "final",
        "code": {
          "coding": [
            {
              "system": "http://loinc.org",
              "code": "69443-0",
              "display": "Did tobacco use contribute to death"
            }
          ]
        },
        "subject": {
          "reference": "Patient/bc172aba-6aa0-49a4-9495-e71eaefdbafb"
        },
        "valueCodeableConcept": {
          "coding": [
            {
              "system": "http://snomed.info/sct",
              "code": "373067005",
              "display": "No"
            }
          ]
        }
      }
    },
    {
      "fullUrl": "Observation/9bf6c107-fcf9-4feb-8ce1-2d07e00b5d3d",
      "resource": {
        "resourceType": "Observation",
        "id": "9bf6c107-fcf9-4feb-8ce1-2d07e00b5d3d",
        "meta": {
          "profile": [
            "http://hl7.org/fhir/us/mdi/StructureDefinition/Observation-decedent-pregnancy"
          ]
        },
        "status": "final",
        "code": {
          "coding": [
            {
              "system": "http://loinc.org",
              "code": "69442-2",
              "display": "Timing of recent pregnancy in relation to death"
            }
          ]
        },
        "subject": {
          "reference": "Patient/bc172aba-6aa0-49a4-9495-e71eaefdbafb"
        },
        "valueCodeableConcept": {
          "coding": [
            {
              "system": "http://terminology.hl7.org/CodeSystem/v3-NullFlavor",
              "code": "NA",
              "display": "Not applicable"
            }
          ]
        }
      }
    },
    {
      "fullUrl": "Observation/0396cc89-49e1-4119-a624-f2588ca2ded9",
      "resource": {
        "resourceType": "Observation",
        "id": "0396cc89-49e1-4119-a624-f2588ca2ded9",
        "meta": {
          "profile": [
            "http://hl7.org/fhir/us/mdi/StructureDefinition/Observation-death-date"
          ]
        },
        "extension": [
          {
            "url": "http://hl7.org/fhir/us/mdi/StructureDefinition/Extension-observation-location",
            "valueReference": {
              "reference": "Location/c05ad86b-32cf-4f38-962d-5246d41b2b0a"
            }
          }
        ],
        "status": "final",
        "code": {
          "coding": [
            {
              "system": "http://loinc.org",
              "code": "81956-5",
              "display": "Date and time of death [TimeStamp]"
            }
          ]
        },
        "subject": {
          "reference": "Patient/bc172aba-6aa0-49a4-9495-e71eaefdbafb"
        },
        "effectiveDateTime": "2022-01-08T15:30:00-05:00",
        "valueDateTime": "2022-01-08T14:04:00-05:00",
        "method": {
          "coding": [
            {
              "system": "http://hl7.org/fhir/us/mdi/CodeSystem/CodeSystem-mdi-codes",
              "code": "exact",
              "display": "Exact"
            }
          ]
        },
        "component": [
          {
            "code": {
              "coding": [
                {
                  "system": "http://loinc.org",
                  "code": "80616-6",
                  "display": "Date and time pronounced dead [US Standard Certificate of Death]"
                }
              ]
            },
            "valueDateTime": "2022-01-08T15:30:00-05:00"
          }
        ]
      }
    },
    {
      "fullUrl": "List/c206fb92-e65a-440d-aab6-2cabf93b65ae",
      "resource": {
        "resourceType": "List",
        "id": "c206fb92-e65a-440d-aab6-2cabf93b65ae",
        "meta": {
          "profile": [
            "http://hl7.org/fhir/us/mdi/StructureDefinition/List-cause-of-death-pathway"
          ]
        },
        "status": "current",
        "mode": "snapshot",
        "subject": {
          "reference": "Patient/bc172aba-6aa0-49a4-9495-e71eaefdbafb"
        },
        "source": {
          "reference": "Practitioner/c0f8825e-2753-46da-bb0f-35d9a53bb072"
        },
        "entry": [
          {
            "item": {
              "reference": "Observation/fe1f5c75-9bd9-431b-bfe5-cb2c64febcd8"
            }
          },
          {
            "item": {
              "reference": "Observation/9e8848ef-ec0d-48fd-8fe3-d1da08db9fa0"
            }
          },
          {
            "item": {
              "reference": "Observation/b6e8732b-2eb5-4b86-a114-2f65cb3e4be3"
            }
          },
          {
            "item": {
              "reference": "Observation/0e66ffa1-b297-441e-8aaf-1914676ab966"
            }
          },
          {
            "item": {
              "reference": "Observation/3eaa33ac-6d87-43d7-8e0a-82a1406839b9"
            }
          }
        ]
      }
    },
    {
      "fullUrl": "Observation/fe1f5c75-9bd9-431b-bfe5-cb2c64febcd8",
      "resource": {
        "resourceType": "Observation",
        "id": "fe1f5c75-9bd9-431b-bfe5-cb2c64febcd8",
        "meta": {
          "profile": [
            "http://hl7.org/fhir/us/mdi/StructureDefinition/Observation-cause-of-death-condition"
          ]
        },
        "status": "final",
        "code": {
          "coding": [
            {
              "system": "http://loinc.org",
              "code": "69453-9",
              "display": "Cause of death [US Standard Certificate of Death]"
            }
          ]
        },
        "subject": {
          "reference": "Patient/bc172aba-6aa0-49a4-9495-e71eaefdbafb"
        },
        "valueCodeableConcept": {
          "text": "Fentanyl toxicity"
        },
        "component": [
          {
            "code": {
              "coding": [
                {
                  "system": "http://loinc.org",
                  "code": "69440-6",
                  "display": "Disease onset to death interval"
                }
              ]
            },
            "valueString": "minutes to hours"
          }
        ]
      }
    },
    {
      "fullUrl": "Observation/9e8848ef-ec0d-48fd-8fe3-d1da08db9fa0",
      "resource": {
        "resourceType": "Observation",
        "id": "9e8848ef-ec0d-48fd-8fe3-d1da08db9fa0",
        "meta": {
          "profile": [
            "http://hl7.org/fhir/us/mdi/StructureDefinition/Observation-cause-of-death-condition"
          ]
        },
        "status": "final",
        "code": {
          "coding": [
            {
              "system": "http://loinc.org",
              "code": "69453-9",
              "display": "Cause of death [US Standard Certificate of Death]"
            }
          ]
        },
        "subject": {
          "reference": "Patient/bc172aba-6aa0-49a4-9495-e71eaefdbafb"
        },
        "valueCodeableConcept": {
          "text": "Fentanyl toxicity"
        },
        "component": [
          {
            "code": {
              "coding": [
                {
                  "system": "http://loinc.org",
                  "code": "69440-6",
                  "display": "Disease onset to death interval"
                }
              ]
            },
            "valueString": "minutes to hours"
          }
        ]
      }
    },
    {
      "fullUrl": "Observation/b6e8732b-2eb5-4b86-a114-2f65cb3e4be3",
      "resource": {
        "resourceType": "Observation",
        "id": "b6e8732b-2eb5-4b86-a114-2f65cb3e4be3",
        "meta": {
          "profile": [
            "http://hl7.org/fhir/us/mdi/StructureDefinition/Observation-cause-of-death-condition"
          ]
        },
        "status": "final",
        "code": {
          "coding": [
            {
              "system": "http://loinc.org",
              "code": "69453-9",
              "display": "Cause of death [US Standard Certificate of Death]"
            }
          ]
        },
        "subject": {
          "reference": "Patient/bc172aba-6aa0-49a4-9495-e71eaefdbafb"
        },
        "valueCodeableConcept": {
          "text": "Fentanyl toxicity"
        },
        "component": [
          {
            "code": {
              "coding": [
                {
                  "system": "http://loinc.org",
                  "code": "69440-6",
                  "display": "Disease onset to death interval"
                }
              ]
            },
            "valueString": "minutes to hours"
          }
        ]
      }
    },
    {
      "fullUrl": "Observation/0e66ffa1-b297-441e-8aaf-1914676ab966",
      "resource": {
        "resourceType": "Observation",
        "id": "0e66ffa1-b297-441e-8aaf-1914676ab966",
        "meta": {
          "profile": [
            "http://hl7.org/fhir/us/mdi/StructureDefinition/Observation-cause-of-death-condition"
          ]
        },
        "status": "final",
        "code": {
          "coding": [
            {
              "system": "http://loinc.org",
              "code": "69453-9",
              "display": "Cause of death [US Standard Certificate of Death]"
            }
          ]
        },
        "subject": {
          "reference": "Patient/bc172aba-6aa0-49a4-9495-e71eaefdbafb"
        },
        "valueCodeableConcept": {
          "text": "Fentanyl toxicity"
        },
        "component": [
          {
            "code": {
              "coding": [
                {
                  "system": "http://loinc.org",
                  "code": "69440-6",
                  "display": "Disease onset to death interval"
                }
              ]
            },
            "valueString": "minutes to hours"
          }
        ]
      }
    },
    {
      "fullUrl": "Observation/3eaa33ac-6d87-43d7-8e0a-82a1406839b9",
      "resource": {
        "resourceType": "Observation",
        "id": "3eaa33ac-6d87-43d7-8e0a-82a1406839b9",
        "meta": {
          "profile": [
            "http://hl7.org/fhir/us/mdi/StructureDefinition/Observation-cause-of-death-condition"
          ]
        },
        "status": "final",
        "code": {
          "coding": [
            {
              "system": "http://loinc.org",
              "code": "69453-9",
              "display": "Cause of death [US Standard Certificate of Death]"
            }
          ]
        },
        "subject": {
          "reference": "Patient/bc172aba-6aa0-49a4-9495-e71eaefdbafb"
        },
        "valueCodeableConcept": {
          "text": "Fentanyl toxicity"
        },
        "component": [
          {
            "code": {
              "coding": [
                {
                  "system": "http://loinc.org",
                  "code": "69440-6",
                  "display": "Disease onset to death interval"
                }
              ]
            },
            "valueString": "minutes to hours"
          }
        ]
      }
    },
    {
      "fullUrl": "Observation/c0923941-5565-4772-aebd-995c79dcd08d",
      "resource": {
        "resourceType": "Observation",
        "id": "c0923941-5565-4772-aebd-995c79dcd08d",
        "meta": {
          "profile": [
            "http://hl7.org/fhir/us/mdi/StructureDefinition/Observation-condition-contributing-to-death"
          ]
        },
        "status": "final",
        "code": {
          "coding": [
            {
              "system": "http://loinc.org",
              "code": "69441-4",
              "display": "Other significant causes or conditions of death"
            }
          ]
        },
        "subject": {
          "reference": "Patient/bc172aba-6aa0-49a4-9495-e71eaefdbafb"
        },
        "performer": [
          {
            "reference": "Practitioner/c0f8825e-2753-46da-bb0f-35d9a53bb072"
          }
        ],
        "valueCodeableConcept": {
          "text": "Hypertensive heart disease"
        }
      }
    },
    {
      "fullUrl": "Observation/8fb1e31d-8d9f-4501-ae65-8925545822b7",
      "resource": {
        "resourceType": "Observation",
        "id": "8fb1e31d-8d9f-4501-ae65-8925545822b7",
        "meta": {
          "profile": [
            "http://hl7.org/fhir/us/mdi/StructureDefinition/Observation-manner-of-death"
          ]
        },
        "status": "final",
        "code": {
          "coding": [
            {
              "system": "http://loinc.org",
              "code": "69449-7",
              "display": "Manner of death"
            }
          ]
        },
        "subject": {
          "reference": "Patient/bc172aba-6aa0-49a4-9495-e71eaefdbafb"
        },
        "performer": [
          {
            "reference": "Patient/bc172aba-6aa0-49a4-9495-e71eaefdbafb"
          }
        ],
        "valueCodeableConcept": {
          "coding": [
            {
              "system": "http://snomed.info/sct",
              "code": "7878000",
              "display": "Accidental death (event)"
            }
          ]
        }
      }
    },
    {
      "fullUrl": "Observation/00c477d9-493b-4949-adb1-6746822a0843",
      "resource": {
        "resourceType": "Observation",
        "id": "00c477d9-493b-4949-adb1-6746822a0843",
        "meta": {
          "profile": [
            "http://hl7.org/fhir/us/mdi/StructureDefinition/Observation-how-death-injury-occurred"
          ]
        },
        "status": "final",
        "code": {
          "coding": [
            {
              "system": "http://loinc.org",
              "code": "11374-6",
              "display": "Injury incident description Narrative"
            }
          ]
        },
        "subject": {
          "reference": "Patient/bc172aba-6aa0-49a4-9495-e71eaefdbafb"
        },
        "effectiveDateTime": "2018-02-19T16:48:06-05:00",
        "performer": [
          {
            "reference": "Practitioner/c0f8825e-2753-46da-bb0f-35d9a53bb072"
          }
        ],
        "valueString": "Ingested counterfeit medication"
      }
    }
  ]
}