{
  "resourceType": "Bundle",
  "id": "aaaf89af-2bcd-4db4-960b-610b613f5769",
  "meta": {
    "profile": [
      "http://hl7.org/fhir/us/mdi/StructureDefinition/Bundle-document-mdi-to-edrs"
    ]
  },
  "identifier": {
    "system": "urn:ietf:rfc:3986",
    "value": "urn:uuid:933dde44f7664b03a20b6324f23986c0"
  },
  "type": "document",
  "timestamp": "2022-12-07T15:33:22.691449-05:00",
  "entry": [
    {
      "fullUrl": "Composition/9038be4e-6fcd-494a-824d-99bfd1362495",
      "resource": {
        "resourceType": "Composition",
        "id": "9038be4e-6fcd-494a-824d-99bfd1362495",
        "meta": {
          "profile": [
            "http://hl7.org/fhir/us/mdi/StructureDefinition/Composition-mdi-to-edrs"
          ]
        },
        "extension": [
          {
            "url": "http://hl7.org/fhir/us/mdi/StructureDefinition/Extension-tracking-number",
            "valueIdentifier": {
              "type": {
                "coding": [
                  {
                    "system": "http://hl7.org/fhir/us/mdi/CodeSystem/CodeSystem-mdi-codes",
                    "code": "mdi-case-number",
                    "display": "MDI Case Number"
                  }
                ]
              },
              "system": "urn:connectathon_jan22:test",
              "value": "ME21-113"
            }
          }
        ],
        "identifier": {
          "value": "a03eab8c-11e8-4d0c-ad2a-b385395e27de"
        },
        "status": "final",
        "type": {
          "coding": [
            {
              "system": "http://loinc.org",
              "code": "86807-5",
              "display": "Death administrative information Document"
            }
          ]
        },
        "subject": {
          "reference": "Patient/27b1133c-5d9f-402f-a921-63787ff93847"
        },
        "date": "2022-02-20",
        "author": [
          {
            "reference": "Practitioner/47415b30-d53d-4a48-8f52-34e356b2ca48"
          }
        ],
        "title": "MDI to EDRS Composition",
        "attester": [
          {
            "mode": "official",
            "party": {
              "reference": "Practitioner/47415b30-d53d-4a48-8f52-34e356b2ca48"
            }
          }
        ],
        "section": [
          {
            "title": "Demographics Section",
            "code": {
              "coding": [
                {
                  "system": "http://hl7.org/fhir/us/mdi/CodeSystem/CodeSystem-mdi-codes",
                  "code": "demographics",
                  "display": "Demographics Section"
                }
              ]
            },
            "text": {
              "status": "additional",
              "div": "<div xmlns=\"http://www.w3.org/1999/xhtml\">\n  <p>No additional demographic information</p>\n  </div>"
            }
          },
          {
            "title": "Circumstances of the Death Section",
            "code": {
              "coding": [
                {
                  "system": "http://hl7.org/fhir/us/mdi/CodeSystem/CodeSystem-mdi-codes",
                  "code": "circumstances",
                  "display": "Circumstances of the Death Section"
                }
              ]
            },
            "entry": [
              {
                "reference": "Location/2b85e31f-6611-4bed-bfcc-3ba8822d2a2d"
              },
              {
                "reference": "Observation/900a9d98-ab18-44a8-ac1f-ee06cee926d2"
              },
              {
                "reference": "Observation/ab8e0580-3e8b-4bf0-aee5-75914bb24a90"
              },
              {
                "reference": "Location/733135ca-aa9a-4bdd-b2b6-3151c8a51e4f"
              }
            ]
          },
          {
            "title": "Jurisdiction Section",
            "code": {
              "coding": [
                {
                  "system": "http://hl7.org/fhir/us/mdi/CodeSystem/CodeSystem-mdi-codes",
                  "code": "jurisdiction",
                  "display": "Jurisdiction Section"
                }
              ]
            },
            "entry": [
              {
                "reference": "Observation/cf7f8f0f-f0ec-4173-9769-24d50e026729"
              },
              {
                "reference": "Procedure/f475c15a-008f-4071-b16e-074e46a89400"
              }
            ]
          },
          {
            "title": "Cause and Manner of Death Section",
            "code": {
              "coding": [
                {
                  "system": "http://hl7.org/fhir/us/mdi/CodeSystem/CodeSystem-mdi-codes",
                  "code": "cause-manner",
                  "display": "Cause and Manner of Death Section"
                }
              ]
            },
            "entry": [
              {
                "reference": "Observation/a487666b-078b-40e8-abbc-45fc22b5d544"
              },
              {
                "reference": "Observation/c2d34112-6c9e-47ce-b2fe-42a1d66ad69a"
              },
              {
                "reference": "Observation/419d2f74-cc0b-45f4-a5f9-94665be0653b"
              },
              {
                "reference": "Observation/63c80f8d-cd45-45fc-8059-1d5dc3052f0b"
              },
              {
                "reference": "Observation/f99e7b67-59be-4f77-9d72-38d6b33e7ef6"
              }
            ]
          },
          {
            "title": "Medical History Section",
            "code": {
              "coding": [
                {
                  "system": "http://hl7.org/fhir/us/mdi/CodeSystem/CodeSystem-mdi-codes",
                  "code": "medical-history",
                  "display": "Medical History Section"
                }
              ]
            },
            "text": {
              "status": "generated",
              "div": "Medical History is not available"
            },
            "emptyReason": {
              "coding": [
                {
                  "system": "http://terminology.hl7.org/CodeSystem/list-empty-reason",
                  "code": "unavailable",
                  "display": "Unavailable"
                }
              ]
            }
          },
          {
            "title": "Exam/Autopsy Section",
            "code": {
              "coding": [
                {
                  "system": "http://hl7.org/fhir/us/mdi/CodeSystem/CodeSystem-mdi-codes",
                  "code": "exam-autopsy",
                  "display": "Exam/Autopsy Section"
                }
              ]
            },
            "entry": [
              {
                "reference": "Observation/dec637c5-17ad-4eab-9940-b4b4d655bb9d"
              }
            ]
          }
        ]
      }
    },
    {
      "fullUrl": "Patient/27b1133c-5d9f-402f-a921-63787ff93847",
      "resource": {
        "resourceType": "Patient",
        "id": "27b1133c-5d9f-402f-a921-63787ff93847",
        "meta": {
          "profile": [
            "http://hl7.org/fhir/us/core/StructureDefinition/us-core-patient"
          ]
        },
        "extension": [
          {
            "extension": [
              {
                "url": "ombCategory",
                "valueCoding": {
                  "system": "urn:oid:2.16.840.1.113883.6.238",
                  "code": "2028-9",
                  "display": "Asian"
                }
              },
              {
                "url": "detailed",
                "valueCoding": {
                  "system": "urn:oid:2.16.840.1.113883.6.238",
                  "code": "2029-7",
                  "display": "Asian Indian"
                }
              },
              {
                "url": "text",
                "valueString": "Asian Indian"
              }
            ],
            "url": "http://hl7.org/fhir/us/core/StructureDefinition/us-core-race"
          },
          {
            "extension": [
              {
                "url": "ombCategory",
                "valueCoding": {
                  "system": "urn:oid:2.16.840.1.113883.6.238",
                  "code": "2186-5",
                  "display": "Not Hispanic or Latino"
                }
              },
              {
                "url": "detailed",
                "valueCoding": {
                  "system": "urn:oid:2.16.840.1.113883.6.238",
                  "code": "2162-6",
                  "display": "Central American Indian"
                }
              },
              {
                "url": "text",
                "valueString": "Not Hispanic or Latino"
              }
            ],
            "url": "http://hl7.org/fhir/us/core/StructureDefinition/us-core-ethnicity"
          },
          {
            "url": "http://hl7.org/fhir/us/core/StructureDefinition/us-core-birthsex",
            "valueCode": "F"
          }
        ],
        "identifier": [
          {
            "use": "usual",
            "type": {
              "coding": [
                {
                  "system": "http://terminology.hl7.org/CodeSystem/v2-0203",
                  "code": "SB",
                  "display": "Social Beneficiary Identifier"
                }
              ]
            },
            "system": "http://hl7.org/fhir/sid/us-ssn",
            "value": "123456790"
          }
        ],
        "name": [
          {
            "family": "Freeman",
            "given": [
              "Alice",
              "J"
            ]
          }
        ],
        "telecom": [
          {
            "system": "phone",
            "value": "404-123-0022",
            "use": "home"
          },
          {
            "system": "email",
            "value": "raven@mdi.org",
            "use": "work"
          }
        ],
        "gender": "female",
        "birthDate": "1978-03-12",
        "deceasedDateTime": "2014-03-02",
        "address": [
          {
            "use": "home",
            "type": "physical",
            "line": [
              "5100 Peachtree Street",
              "Bldg4-12"
            ],
            "city": "Atlanta",
            "state": "GA",
            "postalCode": "09090",
            "country": "USA"
          }
        ]
      }
    },
    {
      "fullUrl": "Practitioner/47415b30-d53d-4a48-8f52-34e356b2ca48",
      "resource": {
        "resourceType": "Practitioner",
        "id": "47415b30-d53d-4a48-8f52-34e356b2ca48",
        "meta": {
          "profile": [
            "http://hl7.org/fhir/us/core/StructureDefinition/us-core-practitioner"
          ]
        },
        "identifier": [
          {
            "system": "http://hl7.org/fhir/sid/us-npi",
            "value": "3333445555"
          }
        ],
        "name": [
          {
            "use": "official",
            "family": "Jones",
            "given": [
              "Sam"
            ],
            "prefix": [
              "Dr"
            ]
          }
        ],
        "telecom": [
          {
            "system": "phone",
            "value": "134-456-7890",
            "use": "work"
          }
        ],
        "address": [
          {
            "use": "work",
            "type": "physical",
            "line": [
              "567 Coda Blvd"
            ],
            "city": "Atlanta",
            "district": "Fulton County",
            "state": "GA",
            "postalCode": "30318",
            "country": "USA"
          }
        ]
      }
    },
    {
      "fullUrl": "Location/2b85e31f-6611-4bed-bfcc-3ba8822d2a2d",
      "resource": {
        "resourceType": "Location",
        "id": "2b85e31f-6611-4bed-bfcc-3ba8822d2a2d",
        "meta": {
          "profile": [
            "http://hl7.org/fhir/us/mdi/StructureDefinition/Location-death"
          ]
        },
        "identifier": [
          {
            "system": "http://www.acme.org/location",
            "value": "29"
          }
        ],
        "status": "active",
        "name": "Atlanta GA Death Location - Freeman",
        "type": [
          {
            "coding": [
              {
                "system": "http://hl7.org/fhir/us/mdi/CodeSystem/CodeSystem-mdi-codes",
                "code": "death",
                "display": "Death Location"
              }
            ]
          }
        ],
        "address": {
          "use": "home",
          "type": "physical",
          "line": [
            "400 Windstream Street"
          ],
          "city": "Atlanta",
          "district": "Fulton County",
          "state": "GA",
          "country": "USA"
        }
      }
    },
    {
      "fullUrl": "Observation/900a9d98-ab18-44a8-ac1f-ee06cee926d2",
      "resource": {
        "resourceType": "Observation",
        "id": "900a9d98-ab18-44a8-ac1f-ee06cee926d2",
        "meta": {
          "profile": [
            "http://hl7.org/fhir/us/mdi/StructureDefinition/Observation-tobacco-use-contributed-to-death"
          ]
        },
        "status": "final",
        "code": {
          "coding": [
            {
              "system": "http://loinc.org",
              "code": "69443-0",
              "display": "Did tobacco use contribute to death"
            }
          ]
        },
        "subject": {
          "reference": "Patient/27b1133c-5d9f-402f-a921-63787ff93847"
        },
        "valueCodeableConcept": {
          "coding": [
            {
              "system": "http://snomed.info/sct",
              "code": "373067005",
              "display": "No"
            }
          ]
        }
      }
    },
    {
      "fullUrl": "Observation/ab8e0580-3e8b-4bf0-aee5-75914bb24a90",
      "resource": {
        "resourceType": "Observation",
        "id": "ab8e0580-3e8b-4bf0-aee5-75914bb24a90",
        "meta": {
          "profile": [
            "http://hl7.org/fhir/us/mdi/StructureDefinition/Observation-decedent-pregnancy"
          ]
        },
        "status": "final",
        "code": {
          "coding": [
            {
              "system": "http://loinc.org",
              "code": "69442-2",
              "display": "Timing of recent pregnancy in relation to death"
            }
          ]
        },
        "subject": {
          "reference": "Patient/27b1133c-5d9f-402f-a921-63787ff93847"
        },
        "valueCodeableConcept": {
          "coding": [
            {
              "system": "http://terminology.hl7.org/CodeSystem/v3-NullFlavor",
              "code": "NA",
              "display": "Not applicable"
            }
          ]
        }
      }
    },
    {
      "fullUrl": "Location/733135ca-aa9a-4bdd-b2b6-3151c8a51e4f",
      "resource": {
        "resourceType": "Location",
        "id": "733135ca-aa9a-4bdd-b2b6-3151c8a51e4f",
        "meta": {
          "profile": [
            "http://hl7.org/fhir/us/mdi/StructureDefinition/Location-injury"
          ]
        },
        "name": "Atlanta GA Injury Location",
        "type": [
          {
            "coding": [
              {
                "system": "http://hl7.org/fhir/us/mdi/CodeSystem/CodeSystem-mdi-codes",
                "code": "injury",
                "display": "Injury Location"
              }
            ]
          }
        ],
        "address": {
          "use": "home",
          "type": "physical",
          "line": [
            "400 Windstream Street"
          ],
          "city": "Atlanta",
          "district": "Fulton County",
          "state": "GA",
          "postalCode": "30318",
          "country": "USA"
        }
      }
    },
    {
      "fullUrl": "Observation/cf7f8f0f-f0ec-4173-9769-24d50e026729",
      "resource": {
        "resourceType": "Observation",
        "id": "cf7f8f0f-f0ec-4173-9769-24d50e026729",
        "meta": {
          "profile": [
            "http://hl7.org/fhir/us/mdi/StructureDefinition/Observation-death-date"
          ]
        },
        "status": "final",
        "code": {
          "coding": [
            {
              "system": "http://loinc.org",
              "code": "81956-5",
              "display": "Date and time of death [TimeStamp]"
            }
          ]
        },
        "subject": {
          "reference": "Patient/27b1133c-5d9f-402f-a921-63787ff93847"
        },
        "effectiveDateTime": "2022-01-08T15:30:00-05:00",
        "valueDateTime": "2022-01-08T14:04:00-05:00",
        "method": {
          "coding": [
            {
              "system": "http://hl7.org/fhir/us/mdi/CodeSystem/CodeSystem-mdi-codes",
              "code": "exact",
              "display": "Exact"
            }
          ]
        },
        "component": [
          {
            "code": {
              "coding": [
                {
                  "system": "http://loinc.org",
                  "code": "80616-6",
                  "display": "Date and time pronounced dead [US Standard Certificate of Death]"
                }
              ]
            },
            "valueDateTime": "2022-01-08T15:30:00-05:00"
          },
          {
            "code": {
              "coding": [
                {
                  "system": "http://loinc.org",
                  "code": "58332-8",
                  "display": "Location of death"
                }
              ]
            },
            "valueCodeableConcept": {
              "coding": [
                {
                  "system": "http://snomed.info/sct",
                  "code": "63238001",
                  "display": "Dead on arrival at hospital"
                }
              ]
            }
          }
        ]
      }
    },
    {
      "fullUrl": "Procedure/f475c15a-008f-4071-b16e-074e46a89400",
      "resource": {
        "resourceType": "Procedure",
        "id": "f475c15a-008f-4071-b16e-074e46a89400",
        "meta": {
          "profile": [
            "http://hl7.org/fhir/us/mdi/StructureDefinition/Procedure-death-certification"
          ]
        },
        "status": "completed",
        "category": {
          "coding": [
            {
              "system": "http://snomed.info/sct",
              "code": "103693007",
              "display": "Diagnostic procedure"
            }
          ]
        },
        "code": {
          "coding": [
            {
              "system": "http://snomed.info/sct",
              "code": "308646001",
              "display": "Death certification"
            }
          ]
        },
        "subject": {
          "reference": "Patient/27b1133c-5d9f-402f-a921-63787ff93847"
        },
        "performedDateTime": "2022-01-08T15:30:00-05:00",
        "performer": [
          {
            "function": {
              "coding": [
                {
                  "system": "http://snomed.info/sct",
                  "code": "455381000124109",
                  "display": "Medical Examiner/Coroner-On the basis of examination, and/or investigation, in my opinion, death occurred at the time, date, and place, and due to the cause(s) and manner stated"
                }
              ]
            },
            "actor": {
              "reference": "Practitioner/47415b30-d53d-4a48-8f52-34e356b2ca48"
            }
          }
        ]
      }
    },
    {
      "fullUrl": "Observation/a487666b-078b-40e8-abbc-45fc22b5d544",
      "resource": {
        "resourceType": "Observation",
        "id": "a487666b-078b-40e8-abbc-45fc22b5d544",
        "meta": {
          "profile": [
            "http://hl7.org/fhir/us/mdi/StructureDefinition/Observation-cause-of-death-part1"
          ]
        },
        "status": "final",
        "code": {
          "coding": [
            {
              "system": "http://loinc.org",
              "code": "69453-9",
              "display": "Cause of death [US Standard Certificate of Death]"
            }
          ]
        },
        "subject": {
          "reference": "Patient/27b1133c-5d9f-402f-a921-63787ff93847"
        },
        "performer": [
          {
            "reference": "Practitioner/47415b30-d53d-4a48-8f52-34e356b2ca48"
          }
        ],
        "valueCodeableConcept": {
          "text": "Fentanyl toxicity"
        },
        "component": [
          {
            "code": {
              "coding": [
                {
                  "system": "http://hl7.org/fhir/us/mdi/CodeSystem/CodeSystem-local-component-codes",
                  "code": "lineNumber",
                  "display": "lineNumber"
                }
              ]
            },
            "valueInteger": 1
          },
          {
            "code": {
              "coding": [
                {
                  "system": "http://loinc.org",
                  "code": "69440-6",
                  "display": "Disease onset to death interval"
                }
              ]
            },
            "valueString": "minutes to hours"
          }
        ]
      }
    },
    {
      "fullUrl": "Observation/c2d34112-6c9e-47ce-b2fe-42a1d66ad69a",
      "resource": {
        "resourceType": "Observation",
        "id": "c2d34112-6c9e-47ce-b2fe-42a1d66ad69a",
        "meta": {
          "profile": [
            "http://hl7.org/fhir/us/mdi/StructureDefinition/Observation-cause-of-death-part1"
          ]
        },
        "status": "final",
        "code": {
          "coding": [
            {
              "system": "http://loinc.org",
              "code": "69453-9",
              "display": "Cause of death [US Standard Certificate of Death]"
            }
          ]
        },
        "subject": {
          "reference": "Patient/27b1133c-5d9f-402f-a921-63787ff93847"
        },
        "performer": [
          {
            "reference": "Practitioner/47415b30-d53d-4a48-8f52-34e356b2ca48"
          }
        ],
        "valueCodeableConcept": {
          "text": "Liver failure"
        },
        "component": [
          {
            "code": {
              "coding": [
                {
                  "system": "http://hl7.org/fhir/us/mdi/CodeSystem/CodeSystem-local-component-codes",
                  "code": "lineNumber",
                  "display": "lineNumber"
                }
              ]
            },
            "valueInteger": 2
          },
          {
            "code": {
              "coding": [
                {
                  "system": "http://loinc.org",
                  "code": "69440-6",
                  "display": "Disease onset to death interval"
                }
              ]
            },
            "valueString": "1 hour"
          }
        ]
      }
    },
    {
      "fullUrl": "Observation/419d2f74-cc0b-45f4-a5f9-94665be0653b",
      "resource": {
        "resourceType": "Observation",
        "id": "419d2f74-cc0b-45f4-a5f9-94665be0653b",
        "meta": {
          "profile": [
            "http://hl7.org/fhir/us/mdi/StructureDefinition/Observation-contributing-cause-of-death-part2"
          ]
        },
        "status": "final",
        "code": {
          "coding": [
            {
              "system": "http://loinc.org",
              "code": "69441-4",
              "display": "Other significant causes or conditions of death"
            }
          ]
        },
        "subject": {
          "reference": "Patient/27b1133c-5d9f-402f-a921-63787ff93847"
        },
        "performer": [
          {
            "reference": "Practitioner/47415b30-d53d-4a48-8f52-34e356b2ca48"
          }
        ],
        "valueCodeableConcept": {
          "text": "Hypertensive heart disease"
        }
      }
    },
    {
      "fullUrl": "Observation/63c80f8d-cd45-45fc-8059-1d5dc3052f0b",
      "resource": {
        "resourceType": "Observation",
        "id": "63c80f8d-cd45-45fc-8059-1d5dc3052f0b",
        "meta": {
          "profile": [
            "http://hl7.org/fhir/us/mdi/StructureDefinition/Observation-manner-of-death"
          ]
        },
        "status": "final",
        "code": {
          "coding": [
            {
              "system": "http://loinc.org",
              "code": "69449-7",
              "display": "Manner of death"
            }
          ]
        },
        "subject": {
          "reference": "Patient/27b1133c-5d9f-402f-a921-63787ff93847"
        },
        "performer": [
          {
            "reference": "Practitioner/47415b30-d53d-4a48-8f52-34e356b2ca48"
          }
        ],
        "valueCodeableConcept": {
          "coding": [
            {
              "system": "http://snomed.info/sct",
              "code": "7878000",
              "display": "Accidental Death"
            }
          ]
        }
      }
    },
    {
      "fullUrl": "Observation/f99e7b67-59be-4f77-9d72-38d6b33e7ef6",
      "resource": {
        "resourceType": "Observation",
        "id": "f99e7b67-59be-4f77-9d72-38d6b33e7ef6",
        "meta": {
          "profile": [
            "http://hl7.org/fhir/us/mdi/StructureDefinition/Observation-how-death-injury-occurred"
          ]
        },
        "status": "final",
        "code": {
          "coding": [
            {
              "system": "http://loinc.org",
              "code": "11374-6",
              "display": "Injury incident description Narrative"
            }
          ]
        },
        "subject": {
          "reference": "Patient/27b1133c-5d9f-402f-a921-63787ff93847"
        },
        "_effectiveDateTime": {
          "extension": [
            {
              "extension": [
                {
                  "url": "http://hl7.org/fhir/us/mdi/StructureDefinition/Extension-date-year",
                  "valueUnsignedInt": 2022
                },
                {
                  "url": "http://hl7.org/fhir/us/mdi/StructureDefinition/Extension-date-month",
                  "valueUnsignedInt": 2
                },
                {
                  "url": "http://hl7.org/fhir/us/mdi/StructureDefinition/Extension-date-day",
                  "valueUnsignedInt": 1
                },
                {
                  "url": "http://hl7.org/fhir/us/mdi/StructureDefinition/Extension-date-time",
                  "valueTime": "15:34:20"
                }
              ],
              "url": "http://hl7.org/fhir/us/mdi/StructureDefinition/Extension-partial-date-time"
            }
          ]
        },
        "performer": [
          {
            "reference": "Practitioner/47415b30-d53d-4a48-8f52-34e356b2ca48"
          }
        ],
        "valueCodeableConcept": {
          "text": "Ingested counterfeit medication"
        },
        "component": [
          {
            "code": {
              "coding": [
                {
                  "system": "http://loinc.org",
                  "code": "69450-5"
                }
              ]
            },
            "valueCodeableConcept": {
              "text": "Private House"
            }
          }
        ]
      }
    },
    {
      "fullUrl": "Observation/dec637c5-17ad-4eab-9940-b4b4d655bb9d",
      "resource": {
        "resourceType": "Observation",
        "id": "dec637c5-17ad-4eab-9940-b4b4d655bb9d",
        "meta": {
          "profile": [
            "http://hl7.org/fhir/us/mdi/StructureDefinition/Observation-autopsy-performed-indicator"
          ]
        },
        "status": "final",
        "code": {
          "coding": [
            {
              "system": "http://loinc.org",
              "code": "85699-7",
              "display": "Autopsy was performed"
            }
          ]
        },
        "subject": {
          "reference": "Patient/27b1133c-5d9f-402f-a921-63787ff93847"
        },
        "valueCodeableConcept": {
          "coding": [
            {
              "system": "http://terminology.hl7.org/CodeSystem/v2-0136",
              "code": "Y",
              "display": "Yes"
            }
          ]
        },
        "component": [
          {
            "code": {
              "coding": [
                {
                  "system": "http://loinc.org",
                  "code": "69436-4"
                }
              ]
            },
            "valueCodeableConcept": {
              "coding": [
                {
                  "system": "http://terminology.hl7.org/CodeSystem/v3-NullFlavor",
                  "code": "NA",
                  "display": "not applicable"
                }
              ]
            }
          }
        ]
      }
    }
  ]
}