{
  "resourceType": "Bundle",
  "meta": {
    "profile": [
      "http://hl7.org/fhir/us/mdi/StructureDefinition/Bundle-document-mdi-to-edrs"
    ]
  },
  "identifier": {
    "system": "urn:ietf:rfc:3986",
    "value": "urn:uuid:933dde44f7664b03a20b6324f23986c0"
  },
  "type": "document",
  "timestamp": "2022-04-19T15:48:32.936832-04:00",
  "entry": [
    {
      "fullUrl": "Composition/ff9331ec-118b-493e-bca3-a6e0774e01da",
      "resource": {
        "resourceType": "Composition",
        "id": "ff9331ec-118b-493e-bca3-a6e0774e01da",
        "meta": {
          "profile": [
            "http://hl7.org/fhir/us/mdi/StructureDefinition/Composition-mdi-to-edrs"
          ]
        },
        "extension": [
          {
            "url": "http://hl7.org/fhir/us/mdi/StructureDefinition/Extension-tracking-number",
            "valueIdentifier": {
              "type": {
                "coding": [
                  {
                    "system": "http://hl7.org/fhir/us/mdi/CodeSystem/CodeSystem-mdi-codes",
                    "code": "mdi-case-number",
                    "display": "MDI Case Number"
                  }
                ]
              },
              "value": "Case1234"
            }
          }
        ],
        "identifier": {
          "value": "a03eab8c-11e8-4d0c-ad2a-b385395e27de"
        },
        "status": "final",
        "type": {
          "coding": [
            {
              "system": "http://loinc.org",
              "code": "86807-5"
            }
          ]
        },
        "subject": {
          "reference": "Patient/efda7dfa-5abb-41cb-b5d2-bbe520f5229d"
        },
        "date": "2022-02-20",
        "author": [
          {
            "reference": "Practitioner/f5c9e7de-28f3-4772-a03e-00b21fd0763c"
          }
        ],
        "title": "MDI to EDRS Composition",
        "section": [
          {
            "title": "Demographics Section",
            "code": {
              "coding": [
                {
                  "system": "http://hl7.org/fhir/us/mdi/CodeSystem/CodeSystem-mdi-codes",
                  "code": "demographics",
                  "display": "Demographics Section"
                }
              ]
            },
            "entry": [
              {
                "reference": "Observation/e3218694-9767-4dcd-bc20-2879bb30d258"
              }
            ]
          },
          {
            "title": "Circumstances of the Death Section",
            "code": {
              "coding": [
                {
                  "system": "http://hl7.org/fhir/us/mdi/CodeSystem/CodeSystem-mdi-codes",
                  "code": "circumstances",
                  "display": "Circumstances of the Death Section"
                }
              ]
            },
            "entry": [
              {
                "reference": "Location/ab3d6c8d-892d-4b5f-9c7f-7e420fda92e7"
              },
              {
                "reference": "Observation/3b7a6512-92df-483b-946a-82bda2df6930"
              },
              {
                "reference": "Observation/fecbf280-92e1-4e37-985d-35c6a7d4f6d7"
              },
              {
                "reference": "Observation/389c1556-620f-46f7-a616-6e53a944e56f"
              }
            ]
          },
          {
            "title": "Jurisdiction Section",
            "code": {
              "coding": [
                {
                  "system": "http://hl7.org/fhir/us/mdi/CodeSystem/CodeSystem-mdi-codes",
                  "code": "jurisdiction",
                  "display": "Jurisdiction Section"
                }
              ]
            },
            "entry": [
              {
                "reference": "Observation/e505e01d-7e58-4079-9321-babd98a4df34"
              }
            ]
          },
          {
            "title": "Cause and Manner of Death Section",
            "code": {
              "coding": [
                {
                  "system": "http://hl7.org/fhir/us/mdi/CodeSystem/CodeSystem-mdi-codes",
                  "code": "cause-manner",
                  "display": "Cause and Manner of Death Section"
                }
              ]
            },
            "entry": [
              {
                "reference": "List/40a5fe5a-b863-4fc6-84a7-26d3d30b6feb"
              },
              {
                "reference": "Observation/42569f18-1beb-4d59-a13f-2705c843d09f"
              },
              {
                "reference": "Observation/9e2e19d5-6295-4448-82c3-c8e07523ce02"
              },
              {
                "reference": "Observation/090a3b4a-58a8-4594-9635-b4eacada1db8"
              }
            ]
          },
          {
            "title": "Medical History Section",
            "code": {
              "coding": [
                {
                  "system": "http://hl7.org/fhir/us/mdi/CodeSystem/CodeSystem-mdi-codes",
                  "code": "medical-history",
                  "display": "Medical History Section"
                }
              ]
            },
            "text": {
              "status": "additional",
              "div": "<div xmlns=\"http://www.w3.org/1999/xhtml\">\n                <p>No Medical History information</p>\n            </div>"
            },
            "emptyReason": {
              "coding": [
                {
                  "system": "http://terminology.hl7.org/CodeSystem/list-empty-reason",
                  "code": "unavailable",
                  "display": "Unavailable"
                }
              ],
              "text": "Decedent's medical history not available"
            }
          }
        ]
      }
    },
    {
      "fullUrl": "Patient/efda7dfa-5abb-41cb-b5d2-bbe520f5229d",
      "resource": {
        "resourceType": "Patient",
        "id": "efda7dfa-5abb-41cb-b5d2-bbe520f5229d",
        "meta": {
          "profile": [
            "http://hl7.org/fhir/us/core/StructureDefinition/us-core-patient"
          ]
        },
        "extension": [
          {
            "extension": [
              {
                "url": "ombCategory",
                "valueCoding": {
                  "system": "urn:oid:2.16.840.1.113883.6.238",
                  "code": "2106-3",
                  "display": "White"
                }
              },
              {
                "url": "detailed",
                "valueCoding": {
                  "system": "urn:oid:2.16.840.1.113883.6.238",
                  "code": "1010-8",
                  "display": "Apache"
                }
              },
              {
                "url": "text",
                "valueString": "Apache"
              }
            ],
            "url": "http://hl7.org/fhir/us/core/StructureDefinition/us-core-race"
          },
          {
            "extension": [
              {
                "url": "ombCategory",
                "valueCoding": {
                  "system": "urn:oid:2.16.840.1.113883.6.238",
                  "code": "2186-5",
                  "display": "Not Hispanic or Latino"
                }
              },
              {
                "url": "detailed",
                "valueCoding": {
                  "system": "urn:oid:2.16.840.1.113883.6.238",
                  "code": "2162-6",
                  "display": "Central American Indian"
                }
              },
              {
                "url": "text",
                "valueString": "Not Hispanic or Latino"
              }
            ],
            "url": "http://hl7.org/fhir/us/core/StructureDefinition/us-core-ethnicity"
          },
          {
            "url": "http://hl7.org/fhir/us/core/StructureDefinition/us-core-birthsex",
            "valueCode": "F"
          }
        ],
        "identifier": [
          {
            "use": "usual",
            "type": {
              "coding": [
                {
                  "system": "http://terminology.hl7.org/CodeSystem/v2-0203",
                  "code": "SS",
                  "display": "Social Security number"
                }
              ],
              "text": "Social Security number"
            },
            "system": "http://hospital.smarthealthit.org",
            "value": "987054321"
          }
        ],
        "name": [
          {
            "family": "FREEMAN",
            "given": [
              "Alice",
              "J"
            ]
          }
        ],
        "telecom": [
          {
            "system": "phone",
            "value": "212-867-5309",
            "use": "home"
          },
          {
            "system": "phone",
            "value": "212-867-5310",
            "use": "home"
          },
          {
            "system": "email",
            "value": "mywork@gtri.org",
            "use": "work"
          }
        ],
        "gender": "female",
        "birthDate": "1965-05-02",
        "deceasedDateTime": "2014-03-02",
        "address": [
          {
            "use": "home",
            "state": "TX",
            "postalCode": "77018",
            "country": "USA"
          }
        ]
      }
    },
    {
      "fullUrl": "Practitioner/f5c9e7de-28f3-4772-a03e-00b21fd0763c",
      "resource": {
        "resourceType": "Practitioner",
        "id": "f5c9e7de-28f3-4772-a03e-00b21fd0763c",
        "meta": {
          "profile": [
            "http://hl7.org/fhir/us/core/StructureDefinition/us-core-practitioner"
          ]
        },
        "identifier": [
          {
            "system": "http://hl7.org/fhir/sid/us-npi",
            "value": "3333445555"
          }
        ],
        "name": [
          {
            "use": "official",
            "family": "Jones",
            "given": [
              "Sam"
            ],
            "prefix": [
              "Dr"
            ]
          }
        ]
      }
    },
    {
      "fullUrl": "Observation/e3218694-9767-4dcd-bc20-2879bb30d258",
      "resource": {
        "resourceType": "Observation",
        "id": "e3218694-9767-4dcd-bc20-2879bb30d258",
        "meta": {
          "profile": [
            "http://hl7.org/fhir/us/odh/StructureDefinition/odh-UsualWork"
          ]
        },
        "status": "final",
        "category": [
          {
            "coding": [
              {
                "system": "http://terminology.hl7.org/CodeSystem/observation-category",
                "code": "social-history"
              }
            ]
          }
        ],
        "code": {
          "coding": [
            {
              "system": "http://loinc.org",
              "code": "21843-8",
              "display": "History of Usual occupation"
            }
          ]
        },
        "subject": {
          "reference": "Patient/efda7dfa-5abb-41cb-b5d2-bbe520f5229d"
        },
        "effectivePeriod": {
          "start": "2000-06-01",
          "end": "2021-05-20"
        },
        "valueCodeableConcept": {
          "coding": [
            {
              "system": "urn:oid:2.16.840.1.114222.4.5.314",
              "code": "3600",
              "display": "Nursing, psychiatric, and home health aides"
            },
            {
              "system": "urn:oid:2.16.840.1.114222.4.5.327",
              "code": "31-1014.00.007136",
              "display": "Certified Nursing Assistant (CNA) [Nursing Assistants]"
            }
          ]
        },
        "component": [
          {
            "code": {
              "coding": [
                {
                  "system": "http://loinc.org",
                  "code": "21844-6",
                  "display": "History of Usual industry"
                }
              ]
            },
            "valueCodeableConcept": {
              "coding": [
                {
                  "system": "urn:oid:2.16.840.1.114222.4.5.315",
                  "code": "8270",
                  "display": "Nursing care facilities"
                }
              ]
            }
          },
          {
            "code": {
              "coding": [
                {
                  "system": "http://loinc.org",
                  "code": "74163-7",
                  "display": "Usual occupation duration"
                }
              ]
            },
            "valueQuantity": {
              "value": 21,
              "unit": "year",
              "system": "http://unitsofmeasure.org",
              "code": "a"
            }
          }
        ]
      }
    },
    {
      "fullUrl": "Location/ab3d6c8d-892d-4b5f-9c7f-7e420fda92e7",
      "resource": {
        "resourceType": "Location",
        "id": "ab3d6c8d-892d-4b5f-9c7f-7e420fda92e7",
        "meta": {
          "profile": [
            "http://hl7.org/fhir/us/core/StructureDefinition/us-core-location"
          ]
        },
        "identifier": [
          {
            "system": "http://www.acme.org/location",
            "value": "29"
          }
        ],
        "status": "active",
        "name": "Atlanta GA Death Location - Freeman",
        "address": {
          "use": "home",
          "type": "physical",
          "line": [
            "400 Windstream Street"
          ],
          "city": "Atlanta",
          "district": "Fulton County",
          "state": "GA",
          "country": "USA"
        }
      }
    },
    {
      "fullUrl": "Observation/3b7a6512-92df-483b-946a-82bda2df6930",
      "resource": {
        "resourceType": "Observation",
        "id": "3b7a6512-92df-483b-946a-82bda2df6930",
        "meta": {
          "profile": [
            "http://hl7.org/fhir/us/mdi/StructureDefinition/Observation-death-injury-at-work"
          ]
        },
        "status": "final",
        "code": {
          "coding": [
            {
              "system": "http://loinc.org",
              "code": "69444-8",
              "display": "Did death result from injury at work"
            }
          ]
        },
        "subject": {
          "reference": "Patient/efda7dfa-5abb-41cb-b5d2-bbe520f5229d"
        },
        "valueCodeableConcept": {
          "coding": [
            {
              "system": "http://terminology.hl7.org/CodeSystem/v2-0136",
              "code": "N",
              "display": "No"
            }
          ]
        }
      }
    },
    {
      "fullUrl": "Observation/fecbf280-92e1-4e37-985d-35c6a7d4f6d7",
      "resource": {
        "resourceType": "Observation",
        "id": "fecbf280-92e1-4e37-985d-35c6a7d4f6d7",
        "meta": {
          "profile": [
            "http://hl7.org/fhir/us/mdi/StructureDefinition/Observation-tobacco-use-contributed-to-death"
          ]
        },
        "status": "final",
        "code": {
          "coding": [
            {
              "system": "http://loinc.org",
              "code": "69443-0",
              "display": "Did tobacco use contribute to death"
            }
          ]
        },
        "subject": {
          "reference": "Patient/efda7dfa-5abb-41cb-b5d2-bbe520f5229d"
        },
        "valueCodeableConcept": {
          "coding": [
            {
              "system": "http://snomed.info/sct",
              "code": "373067005",
              "display": "No"
            }
          ]
        }
      }
    },
    {
      "fullUrl": "Observation/389c1556-620f-46f7-a616-6e53a944e56f",
      "resource": {
        "resourceType": "Observation",
        "id": "389c1556-620f-46f7-a616-6e53a944e56f",
        "meta": {
          "profile": [
            "http://hl7.org/fhir/us/mdi/StructureDefinition/Observation-decedent-pregnancy"
          ]
        },
        "status": "final",
        "code": {
          "coding": [
            {
              "system": "http://loinc.org",
              "code": "69442-2",
              "display": "Timing of recent pregnancy in relation to death"
            }
          ]
        },
        "subject": {
          "reference": "Patient/efda7dfa-5abb-41cb-b5d2-bbe520f5229d"
        },
        "valueCodeableConcept": {
          "coding": [
            {
              "system": "http://terminology.hl7.org/CodeSystem/v3-NullFlavor",
              "code": "NA",
              "display": "Not applicable"
            }
          ]
        }
      }
    },
    {
      "fullUrl": "Observation/e505e01d-7e58-4079-9321-babd98a4df34",
      "resource": {
        "resourceType": "Observation",
        "id": "e505e01d-7e58-4079-9321-babd98a4df34",
        "meta": {
          "profile": [
            "http://hl7.org/fhir/us/mdi/StructureDefinition/Observation-death-date"
          ]
        },
        "extension": [
          {
            "url": "http://hl7.org/fhir/us/mdi/StructureDefinition/Extension-observation-location",
            "valueReference": {
              "reference": "Location/ab3d6c8d-892d-4b5f-9c7f-7e420fda92e7"
            }
          }
        ],
        "status": "final",
        "code": {
          "coding": [
            {
              "system": "http://loinc.org",
              "code": "81956-5",
              "display": "Date and time of death [TimeStamp]"
            }
          ]
        },
        "subject": {
          "reference": "Patient/efda7dfa-5abb-41cb-b5d2-bbe520f5229d"
        },
        "effectiveDateTime": "2022-01-08T15:30:00-05:00",
        "valueDateTime": "2022-01-08T14:04:00-05:00",
        "method": {
          "coding": [
            {
              "system": "http://hl7.org/fhir/us/mdi/CodeSystem/CodeSystem-mdi-codes",
              "code": "exact",
              "display": "Exact"
            }
          ]
        },
        "component": [
          {
            "code": {
              "coding": [
                {
                  "system": "http://loinc.org",
                  "code": "80616-6",
                  "display": "Date and time pronounced dead [US Standard Certificate of Death]"
                }
              ]
            },
            "valueDateTime": "2022-01-08T15:30:00-05:00"
          }
        ]
      }
    },
    {
      "fullUrl": "List/40a5fe5a-b863-4fc6-84a7-26d3d30b6feb",
      "resource": {
        "resourceType": "List",
        "id": "40a5fe5a-b863-4fc6-84a7-26d3d30b6feb",
        "meta": {
          "profile": [
            "http://hl7.org/fhir/us/mdi/StructureDefinition/List-cause-of-death-pathway"
          ]
        },
        "status": "current",
        "mode": "snapshot",
        "subject": {
          "reference": "Patient/efda7dfa-5abb-41cb-b5d2-bbe520f5229d"
        },
        "source": {
          "reference": "Practitioner/f5c9e7de-28f3-4772-a03e-00b21fd0763c"
        },
        "entry": [
          {
            "item": {
              "reference": "Observation/48302c3f-2561-4df0-8f27-b69f2a6f78d6"
            }
          },
          {
            "item": {
              "reference": "Observation/65c0c11c-90ab-4e8d-834e-5c42adcfe6d6"
            }
          },
          {
            "item": {
              "reference": "Observation/102b9ad2-2e67-4404-a31a-e833947bcfa1"
            }
          },
          {
            "item": {
              "reference": "Observation/f38b5e9d-187d-4e37-b208-0278a3061026"
            }
          },
          {
            "item": {
              "reference": "Observation/bb48eb22-8ee4-4ee8-a61e-15d8c74a3581"
            }
          }
        ]
      }
    },
    {
      "fullUrl": "Observation/48302c3f-2561-4df0-8f27-b69f2a6f78d6",
      "resource": {
        "resourceType": "Observation",
        "id": "48302c3f-2561-4df0-8f27-b69f2a6f78d6",
        "meta": {
          "profile": [
            "http://hl7.org/fhir/us/mdi/StructureDefinition/Observation-cause-of-death-condition"
          ]
        },
        "status": "final",
        "code": {
          "coding": [
            {
              "system": "http://loinc.org",
              "code": "69453-9",
              "display": "Cause of death [US Standard Certificate of Death]"
            }
          ]
        },
        "subject": {
          "reference": "Patient/efda7dfa-5abb-41cb-b5d2-bbe520f5229d"
        },
        "performer": [
          {
            "reference": "Practitioner/f5c9e7de-28f3-4772-a03e-00b21fd0763c"
          }
        ],
        "valueCodeableConcept": {
          "text": "Fentanyl toxicity"
        },
        "component": [
          {
            "code": {
              "coding": [
                {
                  "system": "http://loinc.org",
                  "code": "69440-6",
                  "display": "Disease onset to death interval"
                }
              ]
            },
            "valueString": "minutes to hours"
          }
        ]
      }
    },
    {
      "fullUrl": "Observation/65c0c11c-90ab-4e8d-834e-5c42adcfe6d6",
      "resource": {
        "resourceType": "Observation",
        "id": "65c0c11c-90ab-4e8d-834e-5c42adcfe6d6",
        "meta": {
          "profile": [
            "http://hl7.org/fhir/us/mdi/StructureDefinition/Observation-cause-of-death-condition"
          ]
        },
        "status": "final",
        "code": {
          "coding": [
            {
              "system": "http://loinc.org",
              "code": "69453-9",
              "display": "Cause of death [US Standard Certificate of Death]"
            }
          ]
        },
        "subject": {
          "reference": "Patient/efda7dfa-5abb-41cb-b5d2-bbe520f5229d"
        },
        "performer": [
          {
            "reference": "Practitioner/f5c9e7de-28f3-4772-a03e-00b21fd0763c"
          }
        ],
        "valueCodeableConcept": {
          "text": "Fentanyl toxicity"
        },
        "component": [
          {
            "code": {
              "coding": [
                {
                  "system": "http://loinc.org",
                  "code": "69440-6",
                  "display": "Disease onset to death interval"
                }
              ]
            },
            "valueString": "minutes to hours"
          }
        ]
      }
    },
    {
      "fullUrl": "Observation/102b9ad2-2e67-4404-a31a-e833947bcfa1",
      "resource": {
        "resourceType": "Observation",
        "id": "102b9ad2-2e67-4404-a31a-e833947bcfa1",
        "meta": {
          "profile": [
            "http://hl7.org/fhir/us/mdi/StructureDefinition/Observation-cause-of-death-condition"
          ]
        },
        "status": "final",
        "code": {
          "coding": [
            {
              "system": "http://loinc.org",
              "code": "69453-9",
              "display": "Cause of death [US Standard Certificate of Death]"
            }
          ]
        },
        "subject": {
          "reference": "Patient/efda7dfa-5abb-41cb-b5d2-bbe520f5229d"
        },
        "performer": [
          {
            "reference": "Practitioner/f5c9e7de-28f3-4772-a03e-00b21fd0763c"
          }
        ],
        "valueCodeableConcept": {
          "text": "Fentanyl toxicity"
        },
        "component": [
          {
            "code": {
              "coding": [
                {
                  "system": "http://loinc.org",
                  "code": "69440-6",
                  "display": "Disease onset to death interval"
                }
              ]
            },
            "valueString": "minutes to hours"
          }
        ]
      }
    },
    {
      "fullUrl": "Observation/f38b5e9d-187d-4e37-b208-0278a3061026",
      "resource": {
        "resourceType": "Observation",
        "id": "f38b5e9d-187d-4e37-b208-0278a3061026",
        "meta": {
          "profile": [
            "http://hl7.org/fhir/us/mdi/StructureDefinition/Observation-cause-of-death-condition"
          ]
        },
        "status": "final",
        "code": {
          "coding": [
            {
              "system": "http://loinc.org",
              "code": "69453-9",
              "display": "Cause of death [US Standard Certificate of Death]"
            }
          ]
        },
        "subject": {
          "reference": "Patient/efda7dfa-5abb-41cb-b5d2-bbe520f5229d"
        },
        "performer": [
          {
            "reference": "Practitioner/f5c9e7de-28f3-4772-a03e-00b21fd0763c"
          }
        ],
        "valueCodeableConcept": {
          "text": "Fentanyl toxicity"
        },
        "component": [
          {
            "code": {
              "coding": [
                {
                  "system": "http://loinc.org",
                  "code": "69440-6",
                  "display": "Disease onset to death interval"
                }
              ]
            },
            "valueString": "minutes to hours"
          }
        ]
      }
    },
    {
      "fullUrl": "Observation/bb48eb22-8ee4-4ee8-a61e-15d8c74a3581",
      "resource": {
        "resourceType": "Observation",
        "id": "bb48eb22-8ee4-4ee8-a61e-15d8c74a3581",
        "meta": {
          "profile": [
            "http://hl7.org/fhir/us/mdi/StructureDefinition/Observation-cause-of-death-condition"
          ]
        },
        "status": "final",
        "code": {
          "coding": [
            {
              "system": "http://loinc.org",
              "code": "69453-9",
              "display": "Cause of death [US Standard Certificate of Death]"
            }
          ]
        },
        "subject": {
          "reference": "Patient/efda7dfa-5abb-41cb-b5d2-bbe520f5229d"
        },
        "performer": [
          {
            "reference": "Practitioner/f5c9e7de-28f3-4772-a03e-00b21fd0763c"
          }
        ],
        "valueCodeableConcept": {
          "text": "Fentanyl toxicity"
        },
        "component": [
          {
            "code": {
              "coding": [
                {
                  "system": "http://loinc.org",
                  "code": "69440-6",
                  "display": "Disease onset to death interval"
                }
              ]
            },
            "valueString": "minutes to hours"
          }
        ]
      }
    },
    {
      "fullUrl": "Observation/42569f18-1beb-4d59-a13f-2705c843d09f",
      "resource": {
        "resourceType": "Observation",
        "id": "42569f18-1beb-4d59-a13f-2705c843d09f",
        "meta": {
          "profile": [
            "http://hl7.org/fhir/us/mdi/StructureDefinition/Observation-condition-contributing-to-death"
          ]
        },
        "status": "final",
        "code": {
          "coding": [
            {
              "system": "http://loinc.org",
              "code": "69441-4",
              "display": "Other significant causes or conditions of death"
            }
          ]
        },
        "subject": {
          "reference": "Patient/efda7dfa-5abb-41cb-b5d2-bbe520f5229d"
        },
        "performer": [
          {
            "reference": "Practitioner/f5c9e7de-28f3-4772-a03e-00b21fd0763c"
          }
        ],
        "valueCodeableConcept": {
          "text": "Hypertensive heart disease"
        }
      }
    },
    {
      "fullUrl": "Observation/9e2e19d5-6295-4448-82c3-c8e07523ce02",
      "resource": {
        "resourceType": "Observation",
        "id": "9e2e19d5-6295-4448-82c3-c8e07523ce02",
        "meta": {
          "profile": [
            "http://hl7.org/fhir/us/mdi/StructureDefinition/Observation-manner-of-death"
          ]
        },
        "status": "final",
        "code": {
          "coding": [
            {
              "system": "http://loinc.org",
              "code": "69449-7",
              "display": "Manner of death"
            }
          ]
        },
        "subject": {
          "reference": "Patient/efda7dfa-5abb-41cb-b5d2-bbe520f5229d"
        },
        "performer": [
          {
            "reference": "Patient/efda7dfa-5abb-41cb-b5d2-bbe520f5229d"
          }
        ],
        "valueCodeableConcept": {
          "coding": [
            {
              "system": "http://snomed.info/sct",
              "code": "7878000",
              "display": "Accidental death (event)"
            }
          ]
        }
      }
    },
    {
      "fullUrl": "Observation/090a3b4a-58a8-4594-9635-b4eacada1db8",
      "resource": {
        "resourceType": "Observation",
        "id": "090a3b4a-58a8-4594-9635-b4eacada1db8",
        "meta": {
          "profile": [
            "http://hl7.org/fhir/us/mdi/StructureDefinition/Observation-how-death-injury-occurred"
          ]
        },
        "status": "final",
        "code": {
          "coding": [
            {
              "system": "http://loinc.org",
              "code": "11374-6",
              "display": "Injury incident description Narrative"
            }
          ]
        },
        "subject": {
          "reference": "Patient/efda7dfa-5abb-41cb-b5d2-bbe520f5229d"
        },
        "effectiveDateTime": "2018-02-19T16:48:06-05:00",
        "performer": [
          {
            "reference": "Practitioner/f5c9e7de-28f3-4772-a03e-00b21fd0763c"
          }
        ],
        "valueString": "Ingested counterfeit medication"
      }
    }
  ]
}