{
  "resourceType": "Bundle",
  "id": "51a32198-a9a4-11ed-afa1-0242ac120002",
  "meta": {
    "profile": [
      "http://hl7.org/fhir/us/mdi/StructureDefinition/Bundle-message-tox-to-mdi"
    ]
  },
  "identifier": {
    "system": "urn:ietf:rfc:3986",
    "value": "urn:uuid:683dde44f7664b03a20b6324f23986d9"
  },
  "type": "message",
  "entry": [
    {
      "fullUrl": "MessageHeader/45f3d4a0-a9a4-11ed-afa1-0242ac120002",
      "resource": {
        "resourceType": "MessageHeader",
        "id": "45f3d4a0-a9a4-11ed-afa1-0242ac120002",
        "meta": {
          "profile": [
            "http://hl7.org/fhir/us/mdi/StructureDefinition/MessageHeader-toxicology-to-mdi"
          ]
        },
        "eventCoding": {
          "system": "http://hl7.org/fhir/us/mdi/CodeSystem/CodeSystem-mdi-codes",
          "code": "tox-result-report",
          "display": "Toxicology Lab Results"
        },
        "source": {
          "name": "University of Florida Pathology Labs, Forensic Toxicology Laboratory",
          "software": "MDI.net",
          "version": "1.0.0",
          "contact": {
            "system": "phone",
            "value": "+1 (555) 123 4567"
          },
          "endpoint": "http://uf.org/access/endpoint/1"
        },
        "focus": [
          {
            "reference": "DiagnosticReport/3739a714-a9a4-11ed-afa1-0242ac120002"
          }
        ]
      }
    },
    {
      "fullUrl": "DiagnosticReport/3739a714-a9a4-11ed-afa1-0242ac120002",
      "resource": {
        "resourceType": "DiagnosticReport",
        "id": "3739a714-a9a4-11ed-afa1-0242ac120002",
        "meta": {
          "profile": [
            "http://hl7.org/fhir/us/mdi/StructureDefinition/DiagnosticReport-toxicology-to-mdi"
          ]
        },
        "text": {
          "status": "additional",
          "div": "<div xmlns=\"http://www.w3.org/1999/xhtml\">\n  <p>It may be appropriate to include interpretive information to help the reader understand the meaning of detected analytes. Interpretive information is not considered a mandatory part of the toxicological report, but is based on jurisdictional or laboratory preference to include such. This information may be included in the body of the report.</p>\n  </div>"
        },
        "extension": [
          {
            "url": "http://hl7.org/fhir/us/mdi/StructureDefinition/Extension-tracking-number",
            "valueIdentifier": {
              "type": {
                "coding": [
                  {
                    "system": "http://hl7.org/fhir/us/mdi/CodeSystem/CodeSystem-mdi-codes",
                    "code": "tox-lab-case-number",
                    "display": "Toxicology Laboratory Case Number"
                  }
                ]
              },
              "system": "http://uf-path-labs.org/fhir/lab-cases",
              "value": "R21-01580"
            }
          },
          {
            "url": "http://hl7.org/fhir/us/mdi/StructureDefinition/Extension-tracking-number",
            "valueIdentifier": {
              "type": {
                "coding": [
                  {
                    "system": "http://hl7.org/fhir/us/mdi/CodeSystem/CodeSystem-mdi-codes",
                    "code": "mdi-case-number",
                    "display": "MDI Case Number"
                  }
                ]
              },
              "system": "urn:connectathon_jan22:test",
              "value": "ME21-113"
            }
          }
        ],
        "status": "final",
        "category": [
          {
            "coding": [
              {
                "system": "http://terminology.hl7.org/CodeSystem/v2-0074",
                "code": "LAB",
                "display": "Laboratory"
              }
            ]
          }
        ],
        "code": {
          "text": "Forensic Toxicology Lab Report"
        },
        "subject": {
          "reference": "Patient/806c53c0-a993-11ed-afa1-0242ac120002"
        },
        "effectiveDateTime": "2022-01-08T16:00:00Z",
        "issued": "2022-01-10T00:00:00+00:00",
        "performer": [
          {
            "reference": "Practitioner/77b2cf2e-a994-11ed-afa1-0242ac120002"
          }
        ],
        "specimen": [
          {
            "reference": "Specimen/8d129084-a994-11ed-afa1-0242ac120002",
            "display": "Blood"
          },
          {
            "reference": "Specimen/9a57db82-a994-11ed-afa1-0242ac120002",
            "display": "Urine"
          },
          {
            "reference": "Specimen/aeaa342c-a994-11ed-afa1-0242ac120002",
            "display": "Vitreous Humor"
          },
          {
            "reference": "Specimen/a451c2ce-a994-11ed-afa1-0242ac120002",
            "display": "Bile"
          },
          {
            "reference": "Specimen/c1f87dd6-a994-11ed-afa1-0242ac120002",
            "display": "Liver"
          },
          {
            "reference": "Specimen/b9d7f690-a994-11ed-afa1-0242ac120002",
            "display": "Stomach Contents"
          }
        ],
        "result": [
          {
            "reference": "Observation/d22ed77c-a994-11ed-afa1-0242ac120002",
            "display": "Ethanol"
          },
          {
            "reference": "Observation/dd010ab2-a994-11ed-afa1-0242ac120002",
            "display": "4-ANPP"
          },
          {
            "reference": "Observation/f034d488-a994-11ed-afa1-0242ac120002",
            "display": "Acetylfentanyl"
          },
          {
            "reference": "Observation/f9c5ac48-a994-11ed-afa1-0242ac120002",
            "display": "Fentanyl"
          },
          {
            "reference": "Observation/033f1c14-a995-11ed-afa1-0242ac120002",
            "display": "Ethanol"
          },
          {
            "reference": "Observation/0c4b6eac-a995-11ed-afa1-0242ac120002",
            "display": "4-ANPP"
          },
          {
            "reference": "Observation/183490e0-a995-11ed-afa1-0242ac120002",
            "display": "Acetylfentanyl"
          },
          {
            "reference": "Observation/24d39a08-a995-11ed-afa1-0242ac120002",
            "display": "Fentanyl"
          },
          {
            "reference": "Observation/2e3842ba-a995-11ed-afa1-0242ac120002",
            "display": "Norfentanyl"
          },
          {
            "reference": "Observation/788e7c02-a996-11ed-afa1-0242ac120002",
            "display": "Xylazine"
          },
          {
            "reference": "Observation/81c53a36-a996-11ed-afa1-0242ac120002",
            "display": "Not Tested"
          },
          {
            "reference": "Observation/8cf44618-a996-11ed-afa1-0242ac120002",
            "display": "Ethanol"
          },
          {
            "reference": "Observation/1a8b1a80-a9a4-11ed-afa1-0242ac120002",
            "display": "Not Tested"
          },
          {
            "reference": "Observation/2d20c6a4-a9a4-11ed-afa1-0242ac120002",
            "display": "Not Tested"
          }
        ]
      }
    },
    {
      "fullUrl": "Patient/806c53c0-a993-11ed-afa1-0242ac120002",
      "resource": {
        "resourceType": "Patient",
        "id": "806c53c0-a993-11ed-afa1-0242ac120002",
        "meta": {
          "profile": [
            "http://hl7.org/fhir/us/core/StructureDefinition/us-core-patient"
          ]
        },
        "extension": [
          {
            "extension": [
              {
                "url": "ombCategory",
                "valueCoding": {
                  "system": "urn:oid:2.16.840.1.113883.6.238",
                  "code": "2028-9",
                  "display": "Asian"
                }
              },
              {
                "url": "detailed",
                "valueCoding": {
                  "system": "urn:oid:2.16.840.1.113883.6.238",
                  "code": "2029-7",
                  "display": "Asian Indian"
                }
              },
              {
                "url": "text",
                "valueString": "Asian Indian"
              }
            ],
            "url": "http://hl7.org/fhir/us/core/StructureDefinition/us-core-race"
          },
          {
            "extension": [
              {
                "url": "ombCategory",
                "valueCoding": {
                  "system": "urn:oid:2.16.840.1.113883.6.238",
                  "code": "2186-5",
                  "display": "Not Hispanic or Latino"
                }
              },
              {
                "url": "detailed",
                "valueCoding": {
                  "system": "urn:oid:2.16.840.1.113883.6.238",
                  "code": "2162-6",
                  "display": "Central American Indian"
                }
              },
              {
                "url": "text",
                "valueString": "Not Hispanic or Latino"
              }
            ],
            "url": "http://hl7.org/fhir/us/core/StructureDefinition/us-core-ethnicity"
          },
          {
            "url": "http://hl7.org/fhir/us/core/StructureDefinition/us-core-birthsex",
            "valueCode": "F"
          }
        ],
        "identifier": [
          {
            "use": "usual",
            "type": {
              "coding": [
                {
                  "system": "http://terminology.hl7.org/CodeSystem/v2-0203",
                  "code": "SB",
                  "display": "Social Beneficiary Identifier"
                }
              ]
            },
            "system": "http://hl7.org/fhir/sid/us-ssn",
            "value": "123456790"
          }
        ],
        "name": [
          {
            "family": "Freeman",
            "given": [
              "Alice",
              "J"
            ]
          }
        ],
        "telecom": [
          {
            "system": "phone",
            "value": "404-123-0022",
            "use": "home"
          },
          {
            "system": "email",
            "value": "raven@mdi.org",
            "use": "work"
          }
        ],
        "gender": "female",
        "birthDate": "1978-03-12",
        "deceasedDateTime": "2014-03-02",
        "address": [
          {
            "use": "home",
            "type": "physical",
            "line": [
              "5100 Peachtree Street",
              "Bldg4-12"
            ],
            "city": "Atlanta",
            "state": "GA",
            "postalCode": "09090",
            "country": "USA"
          }
        ]
      }
    },
    {
      "fullUrl": "Practitioner/77b2cf2e-a994-11ed-afa1-0242ac120002",
      "resource": {
        "resourceType": "Practitioner",
        "id": "77b2cf2e-a994-11ed-afa1-0242ac120002",
        "meta": {
          "profile": [
            "http://hl7.org/fhir/us/core/StructureDefinition/us-core-practitioner"
          ]
        },
        "identifier": [
          {
            "system": "http://hl7.org/fhir/sid/us-npi",
            "value": "555667777"
          }
        ],
        "name": [
          {
            "use": "official",
            "family": "Goldberger",
            "given": [
              "Bruce"
            ],
            "prefix": [
              "Dr"
            ]
          }
        ]
      }
    },
    {
      "fullUrl": "Specimen/8d129084-a994-11ed-afa1-0242ac120002",
      "resource": {
        "resourceType": "Specimen",
        "id": "8d129084-a994-11ed-afa1-0242ac120002",
        "meta": {
          "profile": [
            "http://hl7.org/fhir/us/mdi/StructureDefinition/Specimen-toxicology-lab"
          ]
        },
        "accessionIdentifier": {
          "system": "http://lab.acme.org/specimens/2021",
          "value": "X352356"
        },
        "status": "available",
        "type": {
          "text": "Blood"
        },
        "subject": {
          "reference": "Patient/806c53c0-a993-11ed-afa1-0242ac120002"
        },
        "receivedTime": "2021-12-03T16:00:00Z",
        "collection": {
          "collectedDateTime": "2021-12-03T11:00:00Z",
          "bodySite": {
            "coding": [
              {
                "system": "http://snomed.info/sct",
                "code": "83419000",
                "display": "Femoral vein structure (body structure)"
              }
            ]
          }
        },
        "container": [
          {
            "description": "20mL GT tube",
            "type": {
              "coding": [
                {
                  "system": "http://snomed.info/sct",
                  "code": "702287009",
                  "display": "Non-evacuated blood collection tube, potassium oxalate/sodium fluoride (physical object)"
                }
              ],
              "text": "GT tube"
            },
            "specimenQuantity": {
              "value": 20,
              "unit": "ml"
            }
          }
        ]
      }
    },
    {
      "fullUrl": "Specimen/9a57db82-a994-11ed-afa1-0242ac120002",
      "resource": {
        "resourceType": "Specimen",
        "id": "9a57db82-a994-11ed-afa1-0242ac120002",
        "meta": {
          "profile": [
            "http://hl7.org/fhir/us/mdi/StructureDefinition/Specimen-toxicology-lab"
          ]
        },
        "accessionIdentifier": {
          "system": "http://lab.acme.org/specimens/2021",
          "value": "ZZZ352356"
        },
        "status": "available",
        "type": {
          "text": "Urine"
        },
        "subject": {
          "reference": "Patient/806c53c0-a993-11ed-afa1-0242ac120002"
        },
        "receivedTime": "2021-12-03T16:00:00Z",
        "collection": {
          "collectedDateTime": "2021-12-03T11:00:00Z"
        },
        "container": [
          {
            "description": "5mL RT tube",
            "specimenQuantity": {
              "value": 5,
              "unit": "ml"
            }
          }
        ]
      }
    },
    {
      "fullUrl": "Specimen/aeaa342c-a994-11ed-afa1-0242ac120002",
      "resource": {
        "resourceType": "Specimen",
        "id": "aeaa342c-a994-11ed-afa1-0242ac120002",
        "meta": {
          "profile": [
            "http://hl7.org/fhir/us/mdi/StructureDefinition/Specimen-toxicology-lab"
          ]
        },
        "accessionIdentifier": {
          "system": "http://lab.acme.org/specimens/2021",
          "value": "XXX352356"
        },
        "status": "available",
        "type": {
          "text": "Vitreous Humor"
        },
        "subject": {
          "reference": "Patient/806c53c0-a993-11ed-afa1-0242ac120002"
        },
        "receivedTime": "2021-12-03T16:00:00Z",
        "collection": {
          "collectedDateTime": "2021-12-03T11:00:00Z"
        },
        "container": [
          {
            "description": "3mL GT tube",
            "specimenQuantity": {
              "value": 3,
              "unit": "ml"
            }
          }
        ]
      }
    },
    {
      "fullUrl": "Specimen/a451c2ce-a994-11ed-afa1-0242ac120002",
      "resource": {
        "resourceType": "Specimen",
        "id": "a451c2ce-a994-11ed-afa1-0242ac120002",
        "meta": {
          "profile": [
            "http://hl7.org/fhir/us/mdi/StructureDefinition/Specimen-toxicology-lab"
          ]
        },
        "accessionIdentifier": {
          "system": "http://lab.acme.org/specimens/2021",
          "value": "OO352356"
        },
        "status": "available",
        "type": {
          "text": "Bile"
        },
        "subject": {
          "reference": "Patient/806c53c0-a993-11ed-afa1-0242ac120002"
        },
        "receivedTime": "2021-12-03T16:00:00Z",
        "collection": {
          "collectedDateTime": "2021-12-03T11:00:00Z"
        },
        "container": [
          {
            "description": "3mL RT tube",
            "specimenQuantity": {
              "value": 3,
              "unit": "ml"
            }
          }
        ]
      }
    },
    {
      "fullUrl": "Specimen/c1f87dd6-a994-11ed-afa1-0242ac120002",
      "resource": {
        "resourceType": "Specimen",
        "id": "c1f87dd6-a994-11ed-afa1-0242ac120002",
        "meta": {
          "profile": [
            "http://hl7.org/fhir/us/mdi/StructureDefinition/Specimen-toxicology-lab"
          ]
        },
        "accessionIdentifier": {
          "system": "http://lab.acme.org/specimens/2021",
          "value": "DD352356"
        },
        "status": "available",
        "type": {
          "text": "Liver"
        },
        "subject": {
          "reference": "Patient/806c53c0-a993-11ed-afa1-0242ac120002"
        },
        "receivedTime": "2021-12-03T16:00:00Z",
        "collection": {
          "collectedDateTime": "2021-12-03T11:00:00Z"
        },
        "container": [
          {
            "description": "5g Cup",
            "specimenQuantity": {
              "value": 5,
              "unit": "ml"
            }
          }
        ]
      }
    },
    {
      "fullUrl": "Specimen/b9d7f690-a994-11ed-afa1-0242ac120002",
      "resource": {
        "resourceType": "Specimen",
        "id": "b9d7f690-a994-11ed-afa1-0242ac120002",
        "meta": {
          "profile": [
            "http://hl7.org/fhir/us/mdi/StructureDefinition/Specimen-toxicology-lab"
          ]
        },
        "accessionIdentifier": {
          "system": "http://lab.acme.org/specimens/2021",
          "value": "MM352356"
        },
        "status": "available",
        "type": {
          "text": "Stomach Contents"
        },
        "subject": {
          "reference": "Patient/806c53c0-a993-11ed-afa1-0242ac120002"
        },
        "receivedTime": "2021-12-03T16:00:00Z",
        "collection": {
          "collectedDateTime": "2021-12-03T11:00:00Z"
        },
        "container": [
          {
            "description": "60mL Cup",
            "specimenQuantity": {
              "value": 60,
              "unit": "ml"
            }
          }
        ]
      }
    },
    {
      "fullUrl": "Observation/d22ed77c-a994-11ed-afa1-0242ac120002",
      "resource": {
        "resourceType": "Observation",
        "id": "d22ed77c-a994-11ed-afa1-0242ac120002",
        "meta": {
          "profile": [
            "http://hl7.org/fhir/us/mdi/StructureDefinition/Observation-toxicology-lab-result"
          ]
        },
        "status": "final",
        "category": [
          {
            "coding": [
              {
                "system": "http://terminology.hl7.org/CodeSystem/observation-category",
                "code": "laboratory",
                "display": "Laboratory"
              }
            ]
          }
        ],
        "code": {
          "text": "Ethanol"
        },
        "subject": {
          "reference": "Patient/806c53c0-a993-11ed-afa1-0242ac120002"
        },
        "effectiveDateTime": "2021-12-03",
        "valueString": "0.145 g/dL",
        "specimen": {
          "reference": "Specimen/8d129084-a994-11ed-afa1-0242ac120002"
        }
      }
    },
    {
      "fullUrl": "Observation/dd010ab2-a994-11ed-afa1-0242ac120002",
      "resource": {
        "resourceType": "Observation",
        "id": "dd010ab2-a994-11ed-afa1-0242ac120002",
        "meta": {
          "profile": [
            "http://hl7.org/fhir/us/mdi/StructureDefinition/Observation-toxicology-lab-result"
          ]
        },
        "status": "final",
        "category": [
          {
            "coding": [
              {
                "system": "http://terminology.hl7.org/CodeSystem/observation-category",
                "code": "laboratory",
                "display": "Laboratory"
              }
            ]
          }
        ],
        "code": {
          "text": "4-ANPP"
        },
        "subject": {
          "reference": "Patient/806c53c0-a993-11ed-afa1-0242ac120002"
        },
        "effectiveDateTime": "2021-12-03",
        "valueString": "Detected",
        "specimen": {
          "reference": "Specimen/8d129084-a994-11ed-afa1-0242ac120002"
        }
      }
    },
    {
      "fullUrl": "Observation/f034d488-a994-11ed-afa1-0242ac120002",
      "resource": {
        "resourceType": "Observation",
        "id": "f034d488-a994-11ed-afa1-0242ac120002",
        "meta": {
          "profile": [
            "http://hl7.org/fhir/us/mdi/StructureDefinition/Observation-toxicology-lab-result"
          ]
        },
        "status": "final",
        "category": [
          {
            "coding": [
              {
                "system": "http://terminology.hl7.org/CodeSystem/observation-category",
                "code": "laboratory",
                "display": "Laboratory"
              }
            ]
          }
        ],
        "code": {
          "text": "Acetylfentanyl"
        },
        "subject": {
          "reference": "Patient/806c53c0-a993-11ed-afa1-0242ac120002"
        },
        "effectiveDateTime": "2021-12-03",
        "valueString": "<2.5 ng/mL",
        "specimen": {
          "reference": "Specimen/8d129084-a994-11ed-afa1-0242ac120002"
        }
      }
    },
    {
      "fullUrl": "Observation/f9c5ac48-a994-11ed-afa1-0242ac120002",
      "resource": {
        "resourceType": "Observation",
        "id": "f9c5ac48-a994-11ed-afa1-0242ac120002",
        "meta": {
          "profile": [
            "http://hl7.org/fhir/us/mdi/StructureDefinition/Observation-toxicology-lab-result"
          ]
        },
        "status": "final",
        "category": [
          {
            "coding": [
              {
                "system": "http://terminology.hl7.org/CodeSystem/observation-category",
                "code": "laboratory",
                "display": "Laboratory"
              }
            ]
          }
        ],
        "code": {
          "text": "Fentanyl"
        },
        "subject": {
          "reference": "Patient/806c53c0-a993-11ed-afa1-0242ac120002"
        },
        "effectiveDateTime": "2021-12-03",
        "valueString": "23 ng/mL",
        "specimen": {
          "reference": "Specimen/8d129084-a994-11ed-afa1-0242ac120002"
        }
      }
    },
    {
      "fullUrl": "Observation/033f1c14-a995-11ed-afa1-0242ac120002",
      "resource": {
        "resourceType": "Observation",
        "id": "033f1c14-a995-11ed-afa1-0242ac120002",
        "meta": {
          "profile": [
            "http://hl7.org/fhir/us/mdi/StructureDefinition/Observation-toxicology-lab-result"
          ]
        },
        "status": "final",
        "category": [
          {
            "coding": [
              {
                "system": "http://terminology.hl7.org/CodeSystem/observation-category",
                "code": "laboratory",
                "display": "Laboratory"
              }
            ]
          }
        ],
        "code": {
          "text": "Ethanol"
        },
        "subject": {
          "reference": "Patient/806c53c0-a993-11ed-afa1-0242ac120002"
        },
        "effectiveDateTime": "2021-12-03",
        "valueString": "0.160 g/dL",
        "specimen": {
          "reference": "Specimen/9a57db82-a994-11ed-afa1-0242ac120002"
        }
      }
    },
    {
      "fullUrl": "Observation/0c4b6eac-a995-11ed-afa1-0242ac120002",
      "resource": {
        "resourceType": "Observation",
        "id": "0c4b6eac-a995-11ed-afa1-0242ac120002",
        "meta": {
          "profile": [
            "http://hl7.org/fhir/us/mdi/StructureDefinition/Observation-toxicology-lab-result"
          ]
        },
        "status": "final",
        "category": [
          {
            "coding": [
              {
                "system": "http://terminology.hl7.org/CodeSystem/observation-category",
                "code": "laboratory",
                "display": "Laboratory"
              }
            ]
          }
        ],
        "code": {
          "text": "4-ANPP"
        },
        "subject": {
          "reference": "Patient/806c53c0-a993-11ed-afa1-0242ac120002"
        },
        "effectiveDateTime": "2021-12-03",
        "valueString": "Detected",
        "specimen": {
          "reference": "Specimen/9a57db82-a994-11ed-afa1-0242ac120002"
        }
      }
    },
    {
      "fullUrl": "Observation/183490e0-a995-11ed-afa1-0242ac120002",
      "resource": {
        "resourceType": "Observation",
        "id": "183490e0-a995-11ed-afa1-0242ac120002",
        "meta": {
          "profile": [
            "http://hl7.org/fhir/us/mdi/StructureDefinition/Observation-toxicology-lab-result"
          ]
        },
        "status": "final",
        "category": [
          {
            "coding": [
              {
                "system": "http://terminology.hl7.org/CodeSystem/observation-category",
                "code": "laboratory",
                "display": "Laboratory"
              }
            ]
          }
        ],
        "code": {
          "text": "Acetylfentanyl"
        },
        "subject": {
          "reference": "Patient/806c53c0-a993-11ed-afa1-0242ac120002"
        },
        "effectiveDateTime": "2021-12-03",
        "valueString": "Detected",
        "specimen": {
          "reference": "Specimen/9a57db82-a994-11ed-afa1-0242ac120002"
        }
      }
    },
    {
      "fullUrl": "Observation/24d39a08-a995-11ed-afa1-0242ac120002",
      "resource": {
        "resourceType": "Observation",
        "id": "24d39a08-a995-11ed-afa1-0242ac120002",
        "meta": {
          "profile": [
            "http://hl7.org/fhir/us/mdi/StructureDefinition/Observation-toxicology-lab-result"
          ]
        },
        "status": "final",
        "category": [
          {
            "coding": [
              {
                "system": "http://terminology.hl7.org/CodeSystem/observation-category",
                "code": "laboratory",
                "display": "Laboratory"
              }
            ]
          }
        ],
        "code": {
          "text": "Fentanyl"
        },
        "subject": {
          "reference": "Patient/806c53c0-a993-11ed-afa1-0242ac120002"
        },
        "effectiveDateTime": "2021-12-03",
        "valueString": "Detected",
        "specimen": {
          "reference": "Specimen/9a57db82-a994-11ed-afa1-0242ac120002"
        }
      }
    },
    {
      "fullUrl": "Observation/2e3842ba-a995-11ed-afa1-0242ac120002",
      "resource": {
        "resourceType": "Observation",
        "id": "2e3842ba-a995-11ed-afa1-0242ac120002",
        "meta": {
          "profile": [
            "http://hl7.org/fhir/us/mdi/StructureDefinition/Observation-toxicology-lab-result"
          ]
        },
        "status": "final",
        "category": [
          {
            "coding": [
              {
                "system": "http://terminology.hl7.org/CodeSystem/observation-category",
                "code": "laboratory",
                "display": "Laboratory"
              }
            ]
          }
        ],
        "code": {
          "text": "Norfentanyl"
        },
        "subject": {
          "reference": "Patient/806c53c0-a993-11ed-afa1-0242ac120002"
        },
        "effectiveDateTime": "2021-12-03",
        "valueString": "Detected",
        "specimen": {
          "reference": "Specimen/9a57db82-a994-11ed-afa1-0242ac120002"
        }
      }
    },
    {
      "fullUrl": "Observation/788e7c02-a996-11ed-afa1-0242ac120002",
      "resource": {
        "resourceType": "Observation",
        "id": "788e7c02-a996-11ed-afa1-0242ac120002",
        "meta": {
          "profile": [
            "http://hl7.org/fhir/us/mdi/StructureDefinition/Observation-toxicology-lab-result"
          ]
        },
        "status": "final",
        "category": [
          {
            "coding": [
              {
                "system": "http://terminology.hl7.org/CodeSystem/observation-category",
                "code": "laboratory",
                "display": "Laboratory"
              }
            ]
          }
        ],
        "code": {
          "text": "Xylazine"
        },
        "subject": {
          "reference": "Patient/806c53c0-a993-11ed-afa1-0242ac120002"
        },
        "effectiveDateTime": "2021-12-03",
        "valueString": "Detected",
        "specimen": {
          "reference": "Specimen/9a57db82-a994-11ed-afa1-0242ac120002"
        }
      }
    },
    {
      "fullUrl": "Observation/81c53a36-a996-11ed-afa1-0242ac120002",
      "resource": {
        "resourceType": "Observation",
        "id": "81c53a36-a996-11ed-afa1-0242ac120002",
        "meta": {
          "profile": [
            "http://hl7.org/fhir/us/mdi/StructureDefinition/Observation-toxicology-lab-result"
          ]
        },
        "status": "final",
        "category": [
          {
            "coding": [
              {
                "system": "http://terminology.hl7.org/CodeSystem/observation-category",
                "code": "laboratory",
                "display": "Laboratory"
              }
            ]
          }
        ],
        "code": {
          "text": "Not Tested"
        },
        "subject": {
          "reference": "Patient/806c53c0-a993-11ed-afa1-0242ac120002"
        },
        "effectiveDateTime": "2021-12-03",
        "valueString": "",
        "specimen": {
          "reference": "Specimen/a451c2ce-a994-11ed-afa1-0242ac120002"
        }
      }
    },
    {
      "fullUrl": "Observation/8cf44618-a996-11ed-afa1-0242ac120002",
      "resource": {
        "resourceType": "Observation",
        "id": "8cf44618-a996-11ed-afa1-0242ac120002",
        "meta": {
          "profile": [
            "http://hl7.org/fhir/us/mdi/StructureDefinition/Observation-toxicology-lab-result"
          ]
        },
        "status": "final",
        "category": [
          {
            "coding": [
              {
                "system": "http://terminology.hl7.org/CodeSystem/observation-category",
                "code": "laboratory",
                "display": "Laboratory"
              }
            ]
          }
        ],
        "code": {
          "text": "Ethanol"
        },
        "subject": {
          "reference": "Patient/806c53c0-a993-11ed-afa1-0242ac120002"
        },
        "effectiveDateTime": "2021-12-03",
        "valueString": "0.133 g/dL",
        "specimen": {
          "reference": "Specimen/aeaa342c-a994-11ed-afa1-0242ac120002"
        }
      }
    },
    {
      "fullUrl": "Observation/1a8b1a80-a9a4-11ed-afa1-0242ac120002",
      "resource": {
        "resourceType": "Observation",
        "id": "1a8b1a80-a9a4-11ed-afa1-0242ac120002",
        "meta": {
          "profile": [
            "http://hl7.org/fhir/us/mdi/StructureDefinition/Observation-toxicology-lab-result"
          ]
        },
        "status": "final",
        "category": [
          {
            "coding": [
              {
                "system": "http://terminology.hl7.org/CodeSystem/observation-category",
                "code": "laboratory",
                "display": "Laboratory"
              }
            ]
          }
        ],
        "code": {
          "text": "Not Tested"
        },
        "subject": {
          "reference": "Patient/806c53c0-a993-11ed-afa1-0242ac120002"
        },
        "effectiveDateTime": "2021-12-03",
        "valueString": "",
        "specimen": {
          "reference": "Specimen/b9d7f690-a994-11ed-afa1-0242ac120002"
        }
      }
    },
    {
      "fullUrl": "Observation/2d20c6a4-a9a4-11ed-afa1-0242ac120002",
      "resource": {
        "resourceType": "Observation",
        "id": "2d20c6a4-a9a4-11ed-afa1-0242ac120002",
        "meta": {
          "profile": [
            "http://hl7.org/fhir/us/mdi/StructureDefinition/Observation-toxicology-lab-result"
          ]
        },
        "status": "final",
        "category": [
          {
            "coding": [
              {
                "system": "http://terminology.hl7.org/CodeSystem/observation-category",
                "code": "laboratory",
                "display": "Laboratory"
              }
            ]
          }
        ],
        "code": {
          "text": "Not Tested"
        },
        "subject": {
          "reference": "Patient/806c53c0-a993-11ed-afa1-0242ac120002"
        },
        "effectiveDateTime": "2021-12-03",
        "valueString": "",
        "specimen": {
          "reference": "Specimen/c1f87dd6-a994-11ed-afa1-0242ac120002"
        }
      }
    }
  ]
}