{
  "resourceType": "Bundle",
  "id": "d1c83922-dd60-11ed-b5ea-0242ac120002",
  "meta": {
    "profile": [
      "http://hl7.org/fhir/us/mdi/StructureDefinition/Bundle-message-tox-to-mdi"
    ]
  },
  "identifier": {
    "system": "urn:ietf:rfc:3986",
    "value": "urn:uuid:c3fafc62dd6011edb5ea0242ac120002"
  },
  "type": "message",
  "entry": [
    {
      "fullUrl": "MessageHeader/d73e936a-dd60-11ed-b5ea-0242ac120002",
      "resource": {
        "resourceType": "MessageHeader",
        "id": "d73e936a-dd60-11ed-b5ea-0242ac120002",
        "meta": {
          "profile": [
            "http://hl7.org/fhir/us/mdi/StructureDefinition/MessageHeader-toxicology-to-mdi"
          ]
        },
        "eventCoding": {
          "system": "http://hl7.org/fhir/us/mdi/CodeSystem/CodeSystem-mdi-codes",
          "code": "tox-result-report",
          "display": "Toxicology Lab Results"
        },
        "source": {
          "name": "University of Florida Pathology Labs, Forensic Toxicology Laboratory",
          "software": "MDI.net",
          "version": "1.0.0",
          "contact": {
            "system": "phone",
            "value": "+1 (555) 123 4567"
          },
          "endpoint": "http://uf.org/access/endpoint/1"
        },
        "focus": [
          {
            "reference": "DiagnosticReport/3a4eb094-dd60-11ed-b5ea-0242ac120002"
          }
        ]
      }
    },
    {
      "fullUrl": "DiagnosticReport/3a4eb094-dd60-11ed-b5ea-0242ac120002",
      "resource": {
        "resourceType": "DiagnosticReport",
        "id": "3a4eb094-dd60-11ed-b5ea-0242ac120002",
        "meta": {
          "profile": [
            "http://hl7.org/fhir/us/mdi/StructureDefinition/DiagnosticReport-toxicology-to-mdi"
          ]
        },
        "text": {
          "status": "additional",
          "div": "<div xmlns=\"http://www.w3.org/1999/xhtml\">\n  <p>It may be appropriate to include interpretive information to help the reader understand the meaning of detected analytes. Interpretive information is not considered a mandatory part of the toxicological report, but is based on jurisdictional or laboratory preference to include such. This information may be included in the body of the report.</p>\n  </div>"
        },
        "extension": [
          {
            "url": "http://hl7.org/fhir/us/mdi/StructureDefinition/Extension-tracking-number",
            "valueIdentifier": {
              "type": {
                "coding": [
                  {
                    "system": "http://hl7.org/fhir/us/mdi/CodeSystem/CodeSystem-mdi-codes",
                    "code": "tox-lab-case-number",
                    "display": "Toxicology Laboratory Case Number"
                  }
                ]
              },
              "system": "http://uab-path-labs.org/fhir/lab-cases",
              "value": "2018-12345"
            }
          }
        ],
        "status": "final",
        "category": [
          {
            "coding": [
              {
                "system": "http://terminology.hl7.org/CodeSystem/v2-0074",
                "code": "LAB",
                "display": "Laboratory"
              }
            ]
          }
        ],
        "code": {
          "text": "Forensic Toxicology Lab Report"
        },
        "subject": {
          "reference": "Patient/d2ab1a9f-9281-4f4b-ac14-2e297209fc33"
        },
        "effectiveDateTime": "2018-10-01T16:00:00Z",
        "issued": "2018-10-05T00:00:00+00:00",
        "performer": [
          {
            "reference": "Practitioner/77b2cf2e-a994-11ed-afa1-0242ac120002"
          }
        ],
        "specimen": [
          {
            "reference": "Specimen/419f068e-dd40-11ed-b5ea-0242ac120002",
            "display": "Blood"
          },
          {
            "reference": "Specimen/28220188-dd46-11ed-b5ea-0242ac120002",
            "display": "Urine"
          },
          {
            "reference": "Specimen/54a2e2ee-dd47-11ed-b5ea-0242ac120002",
            "display": "Blood"
          },
          {
            "reference": "Specimen/13c0909a-dd48-11ed-b5ea-0242ac120002",
            "display": "Blood"
          },
          {
            "reference": "Specimen/1cfb55a0-dd48-11ed-b5ea-0242ac120002",
            "display": "Blood"
          },
          {
            "reference": "Specimen/21c942fe-dd48-11ed-b5ea-0242ac120002",
            "display": "Blood"
          }
        ],
        "result": [
          {
            "reference": "Observation/a6e42852-dd5f-11ed-b5ea-0242ac120002",
            "display": "Ethanol"
          },
          {
            "reference": "Observation/acdce014-dd5f-11ed-b5ea-0242ac120002",
            "display": "DA"
          },
          {
            "reference": "Observation/b24c7bf4-dd5f-11ed-b5ea-0242ac120002",
            "display": "Ecgonine Methyl Ester"
          },
          {
            "reference": "Observation/b757dbc0-dd5f-11ed-b5ea-0242ac120002",
            "display": "Cocaine"
          },
          {
            "reference": "Observation/c5db7db4-dd5f-11ed-b5ea-0242ac120002",
            "display": "Cocaethylene"
          },
          {
            "reference": "Observation/c9e7ff18-dd5f-11ed-b5ea-0242ac120002",
            "display": "Fentanyl"
          }
        ],
        "conclusion": "The conclusion comes here. This is a test data for Toxicology-to-MDI workflow."
      }
    },
    {
      "fullUrl": "Patient/d2ab1a9f-9281-4f4b-ac14-2e297209fc33",
      "resource": {
        "resourceType": "Patient",
        "id": "d2ab1a9f-9281-4f4b-ac14-2e297209fc33",
        "meta": {
          "profile": [
            "http://hl7.org/fhir/us/core/StructureDefinition/us-core-patient"
          ]
        },
        "extension": [
          {
            "extension": [
              {
                "url": "ombCategory",
                "valueCoding": {
                  "system": "urn:oid:2.16.840.1.113883.6.238",
                  "code": "2054-5",
                  "display": "Black or African American"
                }
              },
              {
                "url": "detailed",
                "valueCoding": {
                  "system": "urn:oid:2.16.840.1.113883.6.238",
                  "code": "2058-6",
                  "display": "African American"
                }
              },
              {
                "url": "text",
                "valueString": "White, Black"
              }
            ],
            "url": "http://hl7.org/fhir/us/core/StructureDefinition/us-core-race"
          },
          {
            "extension": [
              {
                "url": "ombCategory",
                "valueCoding": {
                  "system": "urn:oid:2.16.840.1.113883.6.238",
                  "code": "2186-5",
                  "display": "Not Hispanic or Latino"
                }
              },
              {
                "url": "detailed",
                "valueCoding": {
                  "system": "urn:oid:2.16.840.1.113883.6.238",
                  "code": "2182-4",
                  "display": "Cuban"
                }
              },
              {
                "url": "text",
                "valueString": "Cuban"
              }
            ],
            "url": "http://hl7.org/fhir/us/core/StructureDefinition/us-core-ethnicity"
          },
          {
            "url": "http://hl7.org/fhir/us/core/StructureDefinition/us-core-birthsex",
            "valueCode": "M"
          }
        ],
        "identifier": [
          {
            "use": "usual",
            "type": {
              "coding": [
                {
                  "system": "http://terminology.hl7.org/CodeSystem/v2-0203",
                  "code": "SB",
                  "display": "Social Beneficiary Identifier"
                }
              ]
            },
            "system": "http://hl7.org/fhir/sid/us-ssn",
            "value": "123456789"
          }
        ],
        "name": [
          {
            "family": "Alpha",
            "given": [
              "Abel",
              "A"
            ]
          }
        ],
        "telecom": [
          {
            "system": "phone",
            "value": "404-770-1234",
            "use": "home"
          },
          {
            "system": "email",
            "value": "abelalpha@tox-case.org",
            "use": "work"
          }
        ],
        "gender": "male",
        "birthDate": "1982-06-14",
        "address": [
          {
            "use": "home",
            "type": "physical",
            "line": [
              "120 Healthy Street"
            ],
            "city": "HL7",
            "state": "GA",
            "postalCode": "00001",
            "country": "USA"
          }
        ]
      }
    },
    {
      "fullUrl": "Practitioner/77b2cf2e-a994-11ed-afa1-0242ac120002",
      "resource": {
        "resourceType": "Practitioner",
        "id": "77b2cf2e-a994-11ed-afa1-0242ac120002",
        "meta": {
          "profile": [
            "http://hl7.org/fhir/us/core/StructureDefinition/us-core-practitioner"
          ]
        },
        "identifier": [
          {
            "system": "http://hl7.org/fhir/sid/us-npi",
            "value": "555667777"
          }
        ],
        "name": [
          {
            "use": "official",
            "family": "Goldberger",
            "given": [
              "Bruce"
            ],
            "prefix": [
              "Dr"
            ]
          }
        ]
      }
    },
    {
      "fullUrl": "Specimen/419f068e-dd40-11ed-b5ea-0242ac120002",
      "resource": {
        "resourceType": "Specimen",
        "id": "419f068e-dd40-11ed-b5ea-0242ac120002",
        "meta": {
          "profile": [
            "http://hl7.org/fhir/us/mdi/StructureDefinition/Specimen-toxicology-lab"
          ]
        },
        "accessionIdentifier": {
          "system": "http://lab.uab.org/specimens/2018",
          "value": "20180001"
        },
        "status": "available",
        "type": {
          "text": "Blood"
        },
        "subject": {
          "reference": "Patient/d2ab1a9f-9281-4f4b-ac14-2e297209fc33"
        },
        "receivedTime": "2018-09-28T16:00:00Z",
        "collection": {
          "collectedDateTime": "2018-09-27T11:00:00Z",
          "bodySite": {
            "text": "Central"
          }
        },
        "container": [
          {
            "description": "20mL GT tube",
            "type": {
              "coding": [
                {
                  "system": "http://snomed.info/sct",
                  "code": "702287009",
                  "display": "Non-evacuated blood collection tube, potassium oxalate/sodium fluoride (physical object)"
                }
              ],
              "text": "GT tube"
            },
            "specimenQuantity": {
              "value": 20,
              "unit": "ml"
            }
          }
        ],
        "condition": [
          {
            "coding": [
              {
                "system": "http://terminology.hl7.org/CodeSystem/v2-0493",
                "code": "COOL",
                "display": "Cool"
              }
            ],
            "text": "Cool"
          }
        ]
      }
    },
    {
      "fullUrl": "Specimen/28220188-dd46-11ed-b5ea-0242ac120002",
      "resource": {
        "resourceType": "Specimen",
        "id": "28220188-dd46-11ed-b5ea-0242ac120002",
        "meta": {
          "profile": [
            "http://hl7.org/fhir/us/mdi/StructureDefinition/Specimen-toxicology-lab"
          ]
        },
        "accessionIdentifier": {
          "system": "http://lab.uab.org/specimens/2018",
          "value": "2018000X"
        },
        "status": "available",
        "type": {
          "text": "Urine"
        },
        "subject": {
          "reference": "Patient/d2ab1a9f-9281-4f4b-ac14-2e297209fc33"
        },
        "receivedTime": "2018-09-28T16:00:00Z",
        "collection": {
          "collectedDateTime": "2018-09-27T11:00:00Z"
        },
        "container": [
          {
            "description": "5mL RT tube",
            "specimenQuantity": {
              "value": 5,
              "unit": "ml"
            }
          }
        ],
        "condition": [
          {
            "coding": [
              {
                "system": "http://terminology.hl7.org/CodeSystem/v2-0493",
                "code": "ROOM",
                "display": "Room temperature"
              }
            ],
            "text": "Room temperature"
          }
        ]
      }
    },
    {
      "fullUrl": "Specimen/54a2e2ee-dd47-11ed-b5ea-0242ac120002",
      "resource": {
        "resourceType": "Specimen",
        "id": "54a2e2ee-dd47-11ed-b5ea-0242ac120002",
        "meta": {
          "profile": [
            "http://hl7.org/fhir/us/mdi/StructureDefinition/Specimen-toxicology-lab"
          ]
        },
        "accessionIdentifier": {
          "system": "http://lab.uab.org/specimens/2018",
          "value": "20180002"
        },
        "status": "available",
        "type": {
          "text": "Blood"
        },
        "subject": {
          "reference": "Patient/d2ab1a9f-9281-4f4b-ac14-2e297209fc33"
        },
        "receivedTime": "2018-09-28T16:00:00Z",
        "collection": {
          "collectedDateTime": "2018-09-27T11:00:00Z",
          "bodySite": {
            "text": "Peripheral"
          }
        },
        "container": [
          {
            "description": "20mL GT tube",
            "type": {
              "coding": [
                {
                  "system": "http://snomed.info/sct",
                  "code": "702287009",
                  "display": "Non-evacuated blood collection tube, potassium oxalate/sodium fluoride (physical object)"
                }
              ],
              "text": "GT tube"
            },
            "specimenQuantity": {
              "value": 20,
              "unit": "ml"
            }
          }
        ]
      }
    },
    {
      "fullUrl": "Specimen/13c0909a-dd48-11ed-b5ea-0242ac120002",
      "resource": {
        "resourceType": "Specimen",
        "id": "13c0909a-dd48-11ed-b5ea-0242ac120002",
        "meta": {
          "profile": [
            "http://hl7.org/fhir/us/mdi/StructureDefinition/Specimen-toxicology-lab"
          ]
        },
        "accessionIdentifier": {
          "system": "http://lab.uab.org/specimens/2018",
          "value": "20180003"
        },
        "status": "available",
        "type": {
          "text": "Blood"
        },
        "subject": {
          "reference": "Patient/d2ab1a9f-9281-4f4b-ac14-2e297209fc33"
        },
        "receivedTime": "2018-09-28T16:00:00Z",
        "collection": {
          "collectedDateTime": "2018-09-27T11:00:00Z",
          "bodySite": {
            "coding": [
              {
                "system": "http://snomed.info/sct",
                "code": "83419000",
                "display": "Femoral vein structure (body structure)"
              }
            ]
          }
        },
        "container": [
          {
            "description": "20mL GT tube",
            "type": {
              "coding": [
                {
                  "system": "http://snomed.info/sct",
                  "code": "702287009",
                  "display": "Non-evacuated blood collection tube, potassium oxalate/sodium fluoride (physical object)"
                }
              ],
              "text": "GT tube"
            },
            "specimenQuantity": {
              "value": 20,
              "unit": "ml"
            }
          }
        ]
      }
    },
    {
      "fullUrl": "Specimen/1cfb55a0-dd48-11ed-b5ea-0242ac120002",
      "resource": {
        "resourceType": "Specimen",
        "id": "1cfb55a0-dd48-11ed-b5ea-0242ac120002",
        "meta": {
          "profile": [
            "http://hl7.org/fhir/us/mdi/StructureDefinition/Specimen-toxicology-lab"
          ]
        },
        "accessionIdentifier": {
          "system": "http://lab.uab.org/specimens/2018",
          "value": "20180004"
        },
        "status": "available",
        "type": {
          "text": "Blood"
        },
        "subject": {
          "reference": "Patient/d2ab1a9f-9281-4f4b-ac14-2e297209fc33"
        },
        "receivedTime": "2018-09-28T16:00:00Z",
        "collection": {
          "collectedDateTime": "2018-09-27T11:00:00Z",
          "bodySite": {
            "text": "Peripheral"
          }
        },
        "container": [
          {
            "description": "20mL GT tube",
            "type": {
              "coding": [
                {
                  "system": "http://snomed.info/sct",
                  "code": "702287009",
                  "display": "Non-evacuated blood collection tube, potassium oxalate/sodium fluoride (physical object)"
                }
              ],
              "text": "GT tube"
            },
            "specimenQuantity": {
              "value": 20,
              "unit": "ml"
            }
          }
        ]
      }
    },
    {
      "fullUrl": "Specimen/21c942fe-dd48-11ed-b5ea-0242ac120002",
      "resource": {
        "resourceType": "Specimen",
        "id": "21c942fe-dd48-11ed-b5ea-0242ac120002",
        "meta": {
          "profile": [
            "http://hl7.org/fhir/us/mdi/StructureDefinition/Specimen-toxicology-lab"
          ]
        },
        "accessionIdentifier": {
          "system": "http://lab.uab.org/specimens/2018",
          "value": "20180005"
        },
        "status": "available",
        "type": {
          "text": "Blood"
        },
        "subject": {
          "reference": "Patient/d2ab1a9f-9281-4f4b-ac14-2e297209fc33"
        },
        "receivedTime": "2018-09-28T16:00:00Z",
        "collection": {
          "collectedDateTime": "2018-09-27T11:00:00Z",
          "bodySite": {
            "text": "Peripheral"
          }
        },
        "container": [
          {
            "description": "20mL GT tube",
            "type": {
              "coding": [
                {
                  "system": "http://snomed.info/sct",
                  "code": "702287009",
                  "display": "Non-evacuated blood collection tube, potassium oxalate/sodium fluoride (physical object)"
                }
              ],
              "text": "GT tube"
            },
            "specimenQuantity": {
              "value": 20,
              "unit": "ml"
            }
          }
        ]
      }
    },
    {
      "fullUrl": "Observation/a6e42852-dd5f-11ed-b5ea-0242ac120002",
      "resource": {
        "resourceType": "Observation",
        "id": "a6e42852-dd5f-11ed-b5ea-0242ac120002",
        "meta": {
          "profile": [
            "http://hl7.org/fhir/us/mdi/StructureDefinition/Observation-toxicology-lab-result"
          ]
        },
        "status": "final",
        "category": [
          {
            "coding": [
              {
                "system": "http://terminology.hl7.org/CodeSystem/observation-category",
                "code": "laboratory",
                "display": "Laboratory"
              }
            ]
          }
        ],
        "code": {
          "text": "Ethanol"
        },
        "subject": {
          "reference": "Patient/d2ab1a9f-9281-4f4b-ac14-2e297209fc33"
        },
        "effectiveDateTime": "2018-09-30",
        "valueString": "ND",
        "method": {
          "text": "GC"
        },
        "specimen": {
          "reference": "Specimen/419f068e-dd40-11ed-b5ea-0242ac120002"
        }
      }
    },
    {
      "fullUrl": "Observation/acdce014-dd5f-11ed-b5ea-0242ac120002",
      "resource": {
        "resourceType": "Observation",
        "id": "acdce014-dd5f-11ed-b5ea-0242ac120002",
        "meta": {
          "profile": [
            "http://hl7.org/fhir/us/mdi/StructureDefinition/Observation-toxicology-lab-result"
          ]
        },
        "status": "final",
        "category": [
          {
            "coding": [
              {
                "system": "http://terminology.hl7.org/CodeSystem/observation-category",
                "code": "laboratory",
                "display": "Laboratory"
              }
            ]
          }
        ],
        "code": {
          "text": "DA"
        },
        "subject": {
          "reference": "Patient/d2ab1a9f-9281-4f4b-ac14-2e297209fc33"
        },
        "effectiveDateTime": "2018-09-30",
        "valueString": "Cocaine M, P",
        "method": {
          "text": "EMIT"
        },
        "specimen": {
          "reference": "Specimen/28220188-dd46-11ed-b5ea-0242ac120002"
        }
      }
    },
    {
      "fullUrl": "Observation/b24c7bf4-dd5f-11ed-b5ea-0242ac120002",
      "resource": {
        "resourceType": "Observation",
        "id": "b24c7bf4-dd5f-11ed-b5ea-0242ac120002",
        "meta": {
          "profile": [
            "http://hl7.org/fhir/us/mdi/StructureDefinition/Observation-toxicology-lab-result"
          ]
        },
        "status": "final",
        "category": [
          {
            "coding": [
              {
                "system": "http://terminology.hl7.org/CodeSystem/observation-category",
                "code": "laboratory",
                "display": "Laboratory"
              }
            ]
          }
        ],
        "code": {
          "text": "Ecgonine Methyl Ester"
        },
        "subject": {
          "reference": "Patient/d2ab1a9f-9281-4f4b-ac14-2e297209fc33"
        },
        "effectiveDateTime": "2018-09-30",
        "valueString": "P",
        "method": {
          "text": "GC/MS"
        },
        "specimen": {
          "reference": "Specimen/54a2e2ee-dd47-11ed-b5ea-0242ac120002"
        }
      }
    },
    {
      "fullUrl": "Observation/b757dbc0-dd5f-11ed-b5ea-0242ac120002",
      "resource": {
        "resourceType": "Observation",
        "id": "b757dbc0-dd5f-11ed-b5ea-0242ac120002",
        "meta": {
          "profile": [
            "http://hl7.org/fhir/us/mdi/StructureDefinition/Observation-toxicology-lab-result"
          ]
        },
        "status": "final",
        "category": [
          {
            "coding": [
              {
                "system": "http://terminology.hl7.org/CodeSystem/observation-category",
                "code": "laboratory",
                "display": "Laboratory"
              }
            ]
          }
        ],
        "code": {
          "text": "Cocaine"
        },
        "subject": {
          "reference": "Patient/d2ab1a9f-9281-4f4b-ac14-2e297209fc33"
        },
        "effectiveDateTime": "2018-09-30",
        "valueString": "0.068",
        "method": {
          "text": "GC/MC"
        },
        "specimen": {
          "reference": "Specimen/13c0909a-dd48-11ed-b5ea-0242ac120002"
        }
      }
    },
    {
      "fullUrl": "Observation/c5db7db4-dd5f-11ed-b5ea-0242ac120002",
      "resource": {
        "resourceType": "Observation",
        "id": "c5db7db4-dd5f-11ed-b5ea-0242ac120002",
        "meta": {
          "profile": [
            "http://hl7.org/fhir/us/mdi/StructureDefinition/Observation-toxicology-lab-result"
          ]
        },
        "status": "final",
        "category": [
          {
            "coding": [
              {
                "system": "http://terminology.hl7.org/CodeSystem/observation-category",
                "code": "laboratory",
                "display": "Laboratory"
              }
            ]
          }
        ],
        "code": {
          "text": "Cocaethylene"
        },
        "subject": {
          "reference": "Patient/d2ab1a9f-9281-4f4b-ac14-2e297209fc33"
        },
        "effectiveDateTime": "2018-09-30",
        "valueString": "0.076",
        "method": {
          "text": "GC/MC"
        },
        "specimen": {
          "reference": "Specimen/1cfb55a0-dd48-11ed-b5ea-0242ac120002"
        }
      }
    },
    {
      "fullUrl": "Observation/c9e7ff18-dd5f-11ed-b5ea-0242ac120002",
      "resource": {
        "resourceType": "Observation",
        "id": "c9e7ff18-dd5f-11ed-b5ea-0242ac120002",
        "meta": {
          "profile": [
            "http://hl7.org/fhir/us/mdi/StructureDefinition/Observation-toxicology-lab-result"
          ]
        },
        "status": "final",
        "category": [
          {
            "coding": [
              {
                "system": "http://terminology.hl7.org/CodeSystem/observation-category",
                "code": "laboratory",
                "display": "Laboratory"
              }
            ]
          }
        ],
        "code": {
          "text": "Fentanyl"
        },
        "subject": {
          "reference": "Patient/d2ab1a9f-9281-4f4b-ac14-2e297209fc33"
        },
        "effectiveDateTime": "2018-09-30",
        "valueString": "0.002",
        "method": {
          "text": "ARUP"
        },
        "specimen": {
          "reference": "Specimen/21c942fe-dd48-11ed-b5ea-0242ac120002"
        }
      }
    }
  ]
}