{
  "resourceType": "Bundle",
  "id": "2b641aea-a9af-11ed-afa1-0242ac120002",
  "meta": {
    "profile": [
      "http://hl7.org/fhir/us/mdi/StructureDefinition/Bundle-message-tox-to-mdi"
    ]
  },
  "identifier": {
    "system": "urn:ietf:rfc:3986",
    "value": "urn:uuid:683dde44f7664b03a20b6324f23986d9"
  },
  "type": "message",
  "entry": [
    {
      "fullUrl": "MessageHeader/20e209e2-a9af-11ed-afa1-0242ac120002",
      "resource": {
        "resourceType": "MessageHeader",
        "id": "20e209e2-a9af-11ed-afa1-0242ac120002",
        "meta": {
          "profile": [
            "http://hl7.org/fhir/us/mdi/StructureDefinition/MessageHeader-toxicology-to-mdi"
          ]
        },
        "eventCoding": {
          "system": "http://hl7.org/fhir/us/mdi/CodeSystem/CodeSystem-mdi-codes",
          "code": "tox-result-report",
          "display": "Toxicology Lab Results"
        },
        "source": {
          "name": "University of Florida Pathology Labs, Forensic Toxicology Laboratory",
          "software": "MDI.net",
          "version": "1.0.0",
          "contact": {
            "system": "phone",
            "value": "+1 (555) 123 4567"
          },
          "endpoint": "http://uf.org/access/endpoint/1"
        },
        "focus": [
          {
            "reference": "DiagnosticReport/feb7b150-a9ae-11ed-afa1-0242ac120002"
          }
        ]
      }
    },
    {
      "fullUrl": "DiagnosticReport/feb7b150-a9ae-11ed-afa1-0242ac120002",
      "resource": {
        "resourceType": "DiagnosticReport",
        "id": "feb7b150-a9ae-11ed-afa1-0242ac120002",
        "meta": {
          "profile": [
            "http://hl7.org/fhir/us/mdi/StructureDefinition/DiagnosticReport-toxicology-to-mdi"
          ]
        },
        "text": {
          "status": "additional",
          "div": "<div xmlns=\"http://www.w3.org/1999/xhtml\">\n  <p><h1 style=\"text-align: center;\">Raven Toxicology Report Example</h1> <p style=\"text-align: center;\"> <strong>75 E Peachtree Rd<br/>Atlanta, GA 30382<br/>Tel: 404-123-4567</strong> </p> <p> <table width=\"100%\"> <tr style=\"vertical-align: top;\"> <th width=\"100%\"><h2>Case Identification</h2></th> </tr> <tr> <td> <table style=\"padding: 1em;\"> <tr><td>Toxicolgy Number:</td><td>R21-01579</td></tr> <tr><td>Name:</td><td>Jasmine M Rogers</td></tr> <tr><td>Report Date:</td><td>2022-01-05T00:00:00Z</td></tr> </table> </td> </tr> <tr style=\"vertical-align: top;\"> <th width=\"100%\"><h2>Specimen(s) Received</h2></th> </tr> <tr> <td> <table style=\"padding: 1em;\"> <tr><td>Id</td><td>Type</td><td>Site</td><td>Date Collected</td></tr> <tr style=\"vertical-align: top;\"><td>X352356</td><td>Blood</td><td>Femoral vein structure (body structure)</td><td>2021-12-03T11:00:00Z</td></tr> <tr style=\"vertical-align: top;\"><td>ZZZ352356</td><td>Urine</td><td/><td>2021-12-03T11:00:00Z</td></tr> <tr style=\"vertical-align: top;\"><td>XXX352356</td><td>Vitreous Humor</td><td/><td>2021-12-03T11:00:00Z</td></tr> <tr style=\"vertical-align: top;\"><td>OO352356</td><td>Bile</td><td/><td>2021-12-03T11:00:00Z</td></tr> <tr style=\"vertical-align: top;\"><td>DD352356</td><td>Liver</td><td/><td>2021-12-03T11:00:00Z</td></tr> <tr style=\"vertical-align: top;\"><td>MM352356</td><td>Stomach Contents</td><td/><td>2021-12-03T11:00:00Z</td></tr> </table> </td> </tr> <tr> <th><h2>Results</h2></th> </tr> <tr> <td> <table style=\"padding: 1em; width: 100%;\"> <tr><th>Sample</th><th>Compound</th><th>Value</th></tr> <tr><td>Blood</td><td>Ethanol</td><td>0.145 g/dL</td></tr> <tr><td>Blood</td><td>Acetaminophen</td><td>54 mg/L</td></tr> <tr><td>Blood</td><td>Alprazolam</td><td>95 ng/mL</td></tr> <tr><td>Blood</td><td>Oxycodone</td><td>335 ng/mL</td></tr> <tr><td>Urine</td><td>Ethanol</td><td>0.160 g/dL</td></tr> <tr><td>Urine</td><td>Acetaminophen</td><td>Detected</td></tr> <tr><td>Urine</td><td>Alpha-hydroxyalprazolam</td><td>Detected</td></tr> <tr><td>Urine</td><td>Cannabinoids</td><td>Detected</td></tr> <tr><td>Urine</td><td>Oxycocone</td><td>Detected</td></tr> <tr><td>Bile</td><td>Not Tested</td><td/></tr> <tr><td>Vitreous Humor</td><td>Ethanol</td><td>0.133 g/dL</td></tr> <tr><td>Stomach Contents</td><td>Not Tested</td><td/></tr> <tr><td>Liver</td><td>Not Tested</td><td/></tr> </table> </td> </tr> <tr> <th><h2>Conclusion</h2></th> </tr> <tr> <td> <h3>Signed By: Dr. Bruce Goldberger</h3> </td> </tr> <tr> <td> Signed By: Dr. Bruce Goldberger </td> </tr> </table> </p></p>\n  </div>"
        },
        "extension": [
          {
            "url": "http://hl7.org/fhir/us/mdi/StructureDefinition/Extension-tracking-number",
            "valueIdentifier": {
              "type": {
                "coding": [
                  {
                    "system": "http://hl7.org/fhir/us/mdi/CodeSystem/CodeSystem-mdi-codes",
                    "code": "tox-lab-case-number",
                    "display": "Toxicology Laboratory Case Number"
                  }
                ]
              },
              "system": "http://uf-path-labs.org/fhir/lab-cases",
              "value": "R21-01579"
            }
          },
          {
            "url": "http://hl7.org/fhir/us/mdi/StructureDefinition/Extension-tracking-number",
            "valueIdentifier": {
              "type": {
                "coding": [
                  {
                    "system": "http://hl7.org/fhir/us/mdi/CodeSystem/CodeSystem-mdi-codes",
                    "code": "mdi-case-number",
                    "display": "MDI Case Number"
                  }
                ]
              },
              "system": "urn:connectathon_jan22:test",
              "value": "ME21-112"
            }
          }
        ],
        "status": "final",
        "category": [
          {
            "coding": [
              {
                "system": "http://terminology.hl7.org/CodeSystem/v2-0074",
                "code": "LAB",
                "display": "Laboratory"
              }
            ]
          }
        ],
        "code": {
          "text": "Forensic Toxicology Lab Report"
        },
        "subject": {
          "reference": "Patient/604702aa-a9a4-11ed-afa1-0242ac120002"
        },
        "effectiveDateTime": "2022-01-04T16:00:00Z",
        "issued": "2022-01-05T00:00:00+00:00",
        "performer": [
          {
            "reference": "Practitioner/77b2cf2e-a994-11ed-afa1-0242ac120002"
          }
        ],
        "specimen": [
          {
            "reference": "Specimen/71427f58-a9a4-11ed-afa1-0242ac120002",
            "display": "Blood"
          },
          {
            "reference": "Specimen/7cbec45e-a9a4-11ed-afa1-0242ac120002",
            "display": "Urine"
          },
          {
            "reference": "Specimen/8fc58222-a9a4-11ed-afa1-0242ac120002",
            "display": "Vitreous Humor"
          },
          {
            "reference": "Specimen/8600ac6c-a9a4-11ed-afa1-0242ac120002",
            "display": "Bile"
          },
          {
            "reference": "Specimen/c704d4ea-a9a4-11ed-afa1-0242ac120002",
            "display": "Liver"
          },
          {
            "reference": "Specimen/b042a250-a9a4-11ed-afa1-0242ac120002",
            "display": "Stomach Contents"
          }
        ],
        "result": [
          {
            "reference": "Observation/d41c2160-a9a4-11ed-afa1-0242ac120002",
            "display": "Ethanol"
          },
          {
            "reference": "Observation/24780f08-a9ae-11ed-afa1-0242ac120002",
            "display": "Acetaminophen"
          },
          {
            "reference": "Observation/58de5e82-a9ae-11ed-afa1-0242ac120002",
            "display": "Alprazolam"
          },
          {
            "reference": "Observation/6540b7f6-a9ae-11ed-afa1-0242ac120002",
            "display": "Oxycodone"
          },
          {
            "reference": "Observation/7af2c8aa-a9ae-11ed-afa1-0242ac120002",
            "display": "Ethanol"
          },
          {
            "reference": "Observation/83a6fdd6-a9ae-11ed-afa1-0242ac120002",
            "display": "Acetaminophen"
          },
          {
            "reference": "Observation/8f49cd94-a9ae-11ed-afa1-0242ac120002",
            "display": "Alpha-hydroxyalprazolam"
          },
          {
            "reference": "Observation/9c13b4ae-a9ae-11ed-afa1-0242ac120002",
            "display": "Cannabinoids"
          },
          {
            "reference": "Observation/ac22b02a-a9ae-11ed-afa1-0242ac120002",
            "display": "Oxycocone"
          },
          {
            "reference": "Observation/b538b696-a9ae-11ed-afa1-0242ac120002",
            "display": "Not Tested"
          },
          {
            "reference": "Observation/bf2ffa2e-a9ae-11ed-afa1-0242ac120002",
            "display": "Ethanol"
          },
          {
            "reference": "Observation/d25e01cc-a9ae-11ed-afa1-0242ac120002",
            "display": "Not Tested"
          },
          {
            "reference": "Observation/db942b36-a9ae-11ed-afa1-0242ac120002",
            "display": "Not Tested"
          }
        ]
      }
    },
    {
      "fullUrl": "Patient/604702aa-a9a4-11ed-afa1-0242ac120002",
      "resource": {
        "resourceType": "Patient",
        "id": "604702aa-a9a4-11ed-afa1-0242ac120002",
        "meta": {
          "profile": [
            "http://hl7.org/fhir/us/core/StructureDefinition/us-core-patient"
          ]
        },
        "extension": [
          {
            "extension": [
              {
                "url": "ombCategory",
                "valueCoding": {
                  "system": "urn:oid:2.16.840.1.113883.6.238",
                  "code": "2106-3",
                  "display": "White"
                }
              },
              {
                "url": "detailed",
                "valueCoding": {
                  "system": "urn:oid:2.16.840.1.113883.6.238",
                  "code": "2108-9",
                  "display": "European"
                }
              },
              {
                "url": "text",
                "valueString": "White European"
              }
            ],
            "url": "http://hl7.org/fhir/us/core/StructureDefinition/us-core-race"
          },
          {
            "extension": [
              {
                "url": "ombCategory",
                "valueCoding": {
                  "system": "urn:oid:2.16.840.1.113883.6.238",
                  "code": "2186-5",
                  "display": "Not Hispanic or Latino"
                }
              },
              {
                "url": "detailed",
                "valueCoding": {
                  "system": "urn:oid:2.16.840.1.113883.6.238",
                  "code": "2180-8",
                  "display": "Puerto Rican"
                }
              },
              {
                "url": "text",
                "valueString": "Puerto Rican"
              }
            ],
            "url": "http://hl7.org/fhir/us/core/StructureDefinition/us-core-ethnicity"
          },
          {
            "url": "http://hl7.org/fhir/us/core/StructureDefinition/us-core-birthsex",
            "valueCode": "F"
          }
        ],
        "identifier": [
          {
            "use": "usual",
            "type": {
              "coding": [
                {
                  "system": "http://terminology.hl7.org/CodeSystem/v2-0203",
                  "code": "SB",
                  "display": "Social Beneficiary Identifier"
                }
              ]
            },
            "system": "http://hl7.org/fhir/sid/us-ssn",
            "value": "789012345"
          }
        ],
        "name": [
          {
            "family": "Rogers",
            "given": [
              "Jasmine",
              "M"
            ]
          }
        ],
        "telecom": [
          {
            "system": "phone",
            "value": "678-121-9989",
            "use": "home"
          },
          {
            "system": "email",
            "value": "bluejay@mdi-case.org",
            "use": "work"
          }
        ],
        "gender": "female",
        "birthDate": "1966-06-15",
        "address": [
          {
            "use": "home",
            "type": "physical",
            "line": [
              "901 Piedmont Street",
              "Suite 200"
            ],
            "city": "Midwell",
            "state": "GA",
            "postalCode": "22090",
            "country": "USA"
          }
        ]
      }
    },
    {
      "fullUrl": "Practitioner/77b2cf2e-a994-11ed-afa1-0242ac120002",
      "resource": {
        "resourceType": "Practitioner",
        "id": "77b2cf2e-a994-11ed-afa1-0242ac120002",
        "meta": {
          "profile": [
            "http://hl7.org/fhir/us/core/StructureDefinition/us-core-practitioner"
          ]
        },
        "identifier": [
          {
            "system": "http://hl7.org/fhir/sid/us-npi",
            "value": "555667777"
          }
        ],
        "name": [
          {
            "use": "official",
            "family": "Goldberger",
            "given": [
              "Bruce"
            ],
            "prefix": [
              "Dr"
            ]
          }
        ]
      }
    },
    {
      "fullUrl": "Specimen/71427f58-a9a4-11ed-afa1-0242ac120002",
      "resource": {
        "resourceType": "Specimen",
        "id": "71427f58-a9a4-11ed-afa1-0242ac120002",
        "meta": {
          "profile": [
            "http://hl7.org/fhir/us/mdi/StructureDefinition/Specimen-toxicology-lab"
          ]
        },
        "accessionIdentifier": {
          "system": "http://lab.acme.org/specimens/2021",
          "value": "X352356"
        },
        "status": "available",
        "type": {
          "text": "Blood"
        },
        "subject": {
          "reference": "Patient/604702aa-a9a4-11ed-afa1-0242ac120002"
        },
        "receivedTime": "2021-12-03T16:00:00Z",
        "collection": {
          "collectedDateTime": "2021-12-03T11:00:00Z",
          "bodySite": {
            "coding": [
              {
                "system": "http://snomed.info/sct",
                "code": "83419000",
                "display": "Femoral vein structure (body structure)"
              }
            ]
          }
        },
        "container": [
          {
            "description": "20mL GT tube",
            "type": {
              "coding": [
                {
                  "system": "http://snomed.info/sct",
                  "code": "702287009",
                  "display": "Non-evacuated blood collection tube, potassium oxalate/sodium fluoride (physical object)"
                }
              ],
              "text": "GT tube"
            },
            "specimenQuantity": {
              "value": 20,
              "unit": "ml"
            }
          }
        ]
      }
    },
    {
      "fullUrl": "Specimen/7cbec45e-a9a4-11ed-afa1-0242ac120002",
      "resource": {
        "resourceType": "Specimen",
        "id": "7cbec45e-a9a4-11ed-afa1-0242ac120002",
        "meta": {
          "profile": [
            "http://hl7.org/fhir/us/mdi/StructureDefinition/Specimen-toxicology-lab"
          ]
        },
        "accessionIdentifier": {
          "system": "http://lab.acme.org/specimens/2021",
          "value": "ZZZ352356"
        },
        "status": "available",
        "type": {
          "text": "Urine"
        },
        "subject": {
          "reference": "Patient/604702aa-a9a4-11ed-afa1-0242ac120002"
        },
        "receivedTime": "2021-12-03T16:00:00Z",
        "collection": {
          "collectedDateTime": "2021-12-03T11:00:00Z"
        },
        "container": [
          {
            "description": "5mL RT tube",
            "specimenQuantity": {
              "value": 5,
              "unit": "ml"
            }
          }
        ]
      }
    },
    {
      "fullUrl": "Specimen/8fc58222-a9a4-11ed-afa1-0242ac120002",
      "resource": {
        "resourceType": "Specimen",
        "id": "8fc58222-a9a4-11ed-afa1-0242ac120002",
        "meta": {
          "profile": [
            "http://hl7.org/fhir/us/mdi/StructureDefinition/Specimen-toxicology-lab"
          ]
        },
        "accessionIdentifier": {
          "system": "http://lab.acme.org/specimens/2021",
          "value": "XXX352356"
        },
        "status": "available",
        "type": {
          "text": "Vitreous Humor"
        },
        "subject": {
          "reference": "Patient/604702aa-a9a4-11ed-afa1-0242ac120002"
        },
        "receivedTime": "2021-12-03T16:00:00Z",
        "collection": {
          "collectedDateTime": "2021-12-03T11:00:00Z"
        },
        "container": [
          {
            "description": "3mL GT tube",
            "specimenQuantity": {
              "value": 3,
              "unit": "ml"
            }
          }
        ]
      }
    },
    {
      "fullUrl": "Specimen/8600ac6c-a9a4-11ed-afa1-0242ac120002",
      "resource": {
        "resourceType": "Specimen",
        "id": "8600ac6c-a9a4-11ed-afa1-0242ac120002",
        "meta": {
          "profile": [
            "http://hl7.org/fhir/us/mdi/StructureDefinition/Specimen-toxicology-lab"
          ]
        },
        "accessionIdentifier": {
          "system": "http://lab.acme.org/specimens/2021",
          "value": "OO352356"
        },
        "status": "available",
        "type": {
          "text": "Bile"
        },
        "subject": {
          "reference": "Patient/604702aa-a9a4-11ed-afa1-0242ac120002"
        },
        "receivedTime": "2021-12-03T16:00:00Z",
        "collection": {
          "collectedDateTime": "2021-12-03T11:00:00Z"
        },
        "container": [
          {
            "description": "3mL RT tube",
            "specimenQuantity": {
              "value": 3,
              "unit": "ml"
            }
          }
        ]
      }
    },
    {
      "fullUrl": "Specimen/c704d4ea-a9a4-11ed-afa1-0242ac120002",
      "resource": {
        "resourceType": "Specimen",
        "id": "c704d4ea-a9a4-11ed-afa1-0242ac120002",
        "meta": {
          "profile": [
            "http://hl7.org/fhir/us/mdi/StructureDefinition/Specimen-toxicology-lab"
          ]
        },
        "accessionIdentifier": {
          "system": "http://lab.acme.org/specimens/2021",
          "value": "DD352356"
        },
        "status": "available",
        "type": {
          "text": "Liver"
        },
        "subject": {
          "reference": "Patient/604702aa-a9a4-11ed-afa1-0242ac120002"
        },
        "receivedTime": "2021-12-03T16:00:00Z",
        "collection": {
          "collectedDateTime": "2021-12-03T11:00:00Z"
        },
        "container": [
          {
            "description": "5g Cup",
            "specimenQuantity": {
              "value": 5,
              "unit": "ml"
            }
          }
        ]
      }
    },
    {
      "fullUrl": "Specimen/b042a250-a9a4-11ed-afa1-0242ac120002",
      "resource": {
        "resourceType": "Specimen",
        "id": "b042a250-a9a4-11ed-afa1-0242ac120002",
        "meta": {
          "profile": [
            "http://hl7.org/fhir/us/mdi/StructureDefinition/Specimen-toxicology-lab"
          ]
        },
        "accessionIdentifier": {
          "system": "http://lab.acme.org/specimens/2021",
          "value": "MM352356"
        },
        "status": "available",
        "type": {
          "text": "Stomach Contents"
        },
        "subject": {
          "reference": "Patient/604702aa-a9a4-11ed-afa1-0242ac120002"
        },
        "receivedTime": "2021-12-03T16:00:00Z",
        "collection": {
          "collectedDateTime": "2021-12-03T11:00:00Z"
        },
        "container": [
          {
            "description": "60mL Cup",
            "specimenQuantity": {
              "value": 60,
              "unit": "ml"
            }
          }
        ]
      }
    },
    {
      "fullUrl": "Observation/d41c2160-a9a4-11ed-afa1-0242ac120002",
      "resource": {
        "resourceType": "Observation",
        "id": "d41c2160-a9a4-11ed-afa1-0242ac120002",
        "meta": {
          "profile": [
            "http://hl7.org/fhir/us/mdi/StructureDefinition/Observation-toxicology-lab-result"
          ]
        },
        "status": "final",
        "category": [
          {
            "coding": [
              {
                "system": "http://terminology.hl7.org/CodeSystem/observation-category",
                "code": "laboratory",
                "display": "Laboratory"
              }
            ]
          }
        ],
        "code": {
          "text": "Ethanol"
        },
        "subject": {
          "reference": "Patient/604702aa-a9a4-11ed-afa1-0242ac120002"
        },
        "effectiveDateTime": "2021-12-03",
        "valueString": "0.145 g/dL",
        "specimen": {
          "reference": "Specimen/71427f58-a9a4-11ed-afa1-0242ac120002"
        }
      }
    },
    {
      "fullUrl": "Observation/24780f08-a9ae-11ed-afa1-0242ac120002",
      "resource": {
        "resourceType": "Observation",
        "id": "24780f08-a9ae-11ed-afa1-0242ac120002",
        "meta": {
          "profile": [
            "http://hl7.org/fhir/us/mdi/StructureDefinition/Observation-toxicology-lab-result"
          ]
        },
        "status": "final",
        "category": [
          {
            "coding": [
              {
                "system": "http://terminology.hl7.org/CodeSystem/observation-category",
                "code": "laboratory",
                "display": "Laboratory"
              }
            ]
          }
        ],
        "code": {
          "text": "Acetaminophen"
        },
        "subject": {
          "reference": "Patient/604702aa-a9a4-11ed-afa1-0242ac120002"
        },
        "effectiveDateTime": "2021-12-03",
        "valueString": "54 mg/L",
        "specimen": {
          "reference": "Specimen/71427f58-a9a4-11ed-afa1-0242ac120002"
        }
      }
    },
    {
      "fullUrl": "Observation/58de5e82-a9ae-11ed-afa1-0242ac120002",
      "resource": {
        "resourceType": "Observation",
        "id": "58de5e82-a9ae-11ed-afa1-0242ac120002",
        "meta": {
          "profile": [
            "http://hl7.org/fhir/us/mdi/StructureDefinition/Observation-toxicology-lab-result"
          ]
        },
        "status": "final",
        "category": [
          {
            "coding": [
              {
                "system": "http://terminology.hl7.org/CodeSystem/observation-category",
                "code": "laboratory",
                "display": "Laboratory"
              }
            ]
          }
        ],
        "code": {
          "text": "Alprazolam"
        },
        "subject": {
          "reference": "Patient/604702aa-a9a4-11ed-afa1-0242ac120002"
        },
        "effectiveDateTime": "2021-12-03",
        "valueString": "95 ng/mL",
        "specimen": {
          "reference": "Specimen/71427f58-a9a4-11ed-afa1-0242ac120002"
        }
      }
    },
    {
      "fullUrl": "Observation/6540b7f6-a9ae-11ed-afa1-0242ac120002",
      "resource": {
        "resourceType": "Observation",
        "id": "6540b7f6-a9ae-11ed-afa1-0242ac120002",
        "meta": {
          "profile": [
            "http://hl7.org/fhir/us/mdi/StructureDefinition/Observation-toxicology-lab-result"
          ]
        },
        "status": "final",
        "category": [
          {
            "coding": [
              {
                "system": "http://terminology.hl7.org/CodeSystem/observation-category",
                "code": "laboratory",
                "display": "Laboratory"
              }
            ]
          }
        ],
        "code": {
          "text": "Oxycodone"
        },
        "subject": {
          "reference": "Patient/604702aa-a9a4-11ed-afa1-0242ac120002"
        },
        "effectiveDateTime": "2021-12-03",
        "valueString": "335 ng/mL",
        "specimen": {
          "reference": "Specimen/71427f58-a9a4-11ed-afa1-0242ac120002"
        }
      }
    },
    {
      "fullUrl": "Observation/7af2c8aa-a9ae-11ed-afa1-0242ac120002",
      "resource": {
        "resourceType": "Observation",
        "id": "7af2c8aa-a9ae-11ed-afa1-0242ac120002",
        "meta": {
          "profile": [
            "http://hl7.org/fhir/us/mdi/StructureDefinition/Observation-toxicology-lab-result"
          ]
        },
        "status": "final",
        "category": [
          {
            "coding": [
              {
                "system": "http://terminology.hl7.org/CodeSystem/observation-category",
                "code": "laboratory",
                "display": "Laboratory"
              }
            ]
          }
        ],
        "code": {
          "text": "Ethanol"
        },
        "subject": {
          "reference": "Patient/604702aa-a9a4-11ed-afa1-0242ac120002"
        },
        "effectiveDateTime": "2021-12-03",
        "valueString": "0.160 g/dL",
        "specimen": {
          "reference": "Specimen/7cbec45e-a9a4-11ed-afa1-0242ac120002"
        }
      }
    },
    {
      "fullUrl": "Observation/83a6fdd6-a9ae-11ed-afa1-0242ac120002",
      "resource": {
        "resourceType": "Observation",
        "id": "83a6fdd6-a9ae-11ed-afa1-0242ac120002",
        "meta": {
          "profile": [
            "http://hl7.org/fhir/us/mdi/StructureDefinition/Observation-toxicology-lab-result"
          ]
        },
        "status": "final",
        "category": [
          {
            "coding": [
              {
                "system": "http://terminology.hl7.org/CodeSystem/observation-category",
                "code": "laboratory",
                "display": "Laboratory"
              }
            ]
          }
        ],
        "code": {
          "text": "Acetaminophen"
        },
        "subject": {
          "reference": "Patient/604702aa-a9a4-11ed-afa1-0242ac120002"
        },
        "effectiveDateTime": "2021-12-03",
        "valueString": "Detected",
        "specimen": {
          "reference": "Specimen/7cbec45e-a9a4-11ed-afa1-0242ac120002"
        }
      }
    },
    {
      "fullUrl": "Observation/8f49cd94-a9ae-11ed-afa1-0242ac120002",
      "resource": {
        "resourceType": "Observation",
        "id": "8f49cd94-a9ae-11ed-afa1-0242ac120002",
        "meta": {
          "profile": [
            "http://hl7.org/fhir/us/mdi/StructureDefinition/Observation-toxicology-lab-result"
          ]
        },
        "status": "final",
        "category": [
          {
            "coding": [
              {
                "system": "http://terminology.hl7.org/CodeSystem/observation-category",
                "code": "laboratory",
                "display": "Laboratory"
              }
            ]
          }
        ],
        "code": {
          "text": "Alpha-hydroxyalprazolam"
        },
        "subject": {
          "reference": "Patient/604702aa-a9a4-11ed-afa1-0242ac120002"
        },
        "effectiveDateTime": "2021-12-03",
        "valueString": "Detected",
        "specimen": {
          "reference": "Specimen/7cbec45e-a9a4-11ed-afa1-0242ac120002"
        }
      }
    },
    {
      "fullUrl": "Observation/9c13b4ae-a9ae-11ed-afa1-0242ac120002",
      "resource": {
        "resourceType": "Observation",
        "id": "9c13b4ae-a9ae-11ed-afa1-0242ac120002",
        "meta": {
          "profile": [
            "http://hl7.org/fhir/us/mdi/StructureDefinition/Observation-toxicology-lab-result"
          ]
        },
        "status": "final",
        "category": [
          {
            "coding": [
              {
                "system": "http://terminology.hl7.org/CodeSystem/observation-category",
                "code": "laboratory",
                "display": "Laboratory"
              }
            ]
          }
        ],
        "code": {
          "text": "Cannabinoids"
        },
        "subject": {
          "reference": "Patient/604702aa-a9a4-11ed-afa1-0242ac120002"
        },
        "effectiveDateTime": "2021-12-03",
        "valueString": "Detected",
        "specimen": {
          "reference": "Specimen/7cbec45e-a9a4-11ed-afa1-0242ac120002"
        }
      }
    },
    {
      "fullUrl": "Observation/ac22b02a-a9ae-11ed-afa1-0242ac120002",
      "resource": {
        "resourceType": "Observation",
        "id": "ac22b02a-a9ae-11ed-afa1-0242ac120002",
        "meta": {
          "profile": [
            "http://hl7.org/fhir/us/mdi/StructureDefinition/Observation-toxicology-lab-result"
          ]
        },
        "status": "final",
        "category": [
          {
            "coding": [
              {
                "system": "http://terminology.hl7.org/CodeSystem/observation-category",
                "code": "laboratory",
                "display": "Laboratory"
              }
            ]
          }
        ],
        "code": {
          "text": "Oxycocone"
        },
        "subject": {
          "reference": "Patient/604702aa-a9a4-11ed-afa1-0242ac120002"
        },
        "effectiveDateTime": "2021-12-03",
        "valueString": "Detected",
        "specimen": {
          "reference": "Specimen/7cbec45e-a9a4-11ed-afa1-0242ac120002"
        }
      }
    },
    {
      "fullUrl": "Observation/b538b696-a9ae-11ed-afa1-0242ac120002",
      "resource": {
        "resourceType": "Observation",
        "id": "b538b696-a9ae-11ed-afa1-0242ac120002",
        "meta": {
          "profile": [
            "http://hl7.org/fhir/us/mdi/StructureDefinition/Observation-toxicology-lab-result"
          ]
        },
        "status": "final",
        "category": [
          {
            "coding": [
              {
                "system": "http://terminology.hl7.org/CodeSystem/observation-category",
                "code": "laboratory",
                "display": "Laboratory"
              }
            ]
          }
        ],
        "code": {
          "text": "Not Tested"
        },
        "subject": {
          "reference": "Patient/604702aa-a9a4-11ed-afa1-0242ac120002"
        },
        "effectiveDateTime": "2021-12-03",
        "valueString": "",
        "specimen": {
          "reference": "Specimen/8600ac6c-a9a4-11ed-afa1-0242ac120002"
        }
      }
    },
    {
      "fullUrl": "Observation/bf2ffa2e-a9ae-11ed-afa1-0242ac120002",
      "resource": {
        "resourceType": "Observation",
        "id": "bf2ffa2e-a9ae-11ed-afa1-0242ac120002",
        "meta": {
          "profile": [
            "http://hl7.org/fhir/us/mdi/StructureDefinition/Observation-toxicology-lab-result"
          ]
        },
        "status": "final",
        "category": [
          {
            "coding": [
              {
                "system": "http://terminology.hl7.org/CodeSystem/observation-category",
                "code": "laboratory",
                "display": "Laboratory"
              }
            ]
          }
        ],
        "code": {
          "text": "Ethanol"
        },
        "subject": {
          "reference": "Patient/604702aa-a9a4-11ed-afa1-0242ac120002"
        },
        "effectiveDateTime": "2021-12-03",
        "valueString": "0.133 g/dL",
        "specimen": {
          "reference": "Specimen/8fc58222-a9a4-11ed-afa1-0242ac120002"
        }
      }
    },
    {
      "fullUrl": "Observation/d25e01cc-a9ae-11ed-afa1-0242ac120002",
      "resource": {
        "resourceType": "Observation",
        "id": "d25e01cc-a9ae-11ed-afa1-0242ac120002",
        "meta": {
          "profile": [
            "http://hl7.org/fhir/us/mdi/StructureDefinition/Observation-toxicology-lab-result"
          ]
        },
        "status": "final",
        "category": [
          {
            "coding": [
              {
                "system": "http://terminology.hl7.org/CodeSystem/observation-category",
                "code": "laboratory",
                "display": "Laboratory"
              }
            ]
          }
        ],
        "code": {
          "text": "Not Tested"
        },
        "subject": {
          "reference": "Patient/604702aa-a9a4-11ed-afa1-0242ac120002"
        },
        "effectiveDateTime": "2021-12-03",
        "valueString": "",
        "specimen": {
          "reference": "Specimen/b042a250-a9a4-11ed-afa1-0242ac120002"
        }
      }
    },
    {
      "fullUrl": "Observation/db942b36-a9ae-11ed-afa1-0242ac120002",
      "resource": {
        "resourceType": "Observation",
        "id": "db942b36-a9ae-11ed-afa1-0242ac120002",
        "meta": {
          "profile": [
            "http://hl7.org/fhir/us/mdi/StructureDefinition/Observation-toxicology-lab-result"
          ]
        },
        "status": "final",
        "category": [
          {
            "coding": [
              {
                "system": "http://terminology.hl7.org/CodeSystem/observation-category",
                "code": "laboratory",
                "display": "Laboratory"
              }
            ]
          }
        ],
        "code": {
          "text": "Not Tested"
        },
        "subject": {
          "reference": "Patient/604702aa-a9a4-11ed-afa1-0242ac120002"
        },
        "effectiveDateTime": "2021-12-03",
        "valueString": "",
        "specimen": {
          "reference": "Specimen/c704d4ea-a9a4-11ed-afa1-0242ac120002"
        }
      }
    }
  ]
}