{
  "resourceType": "Bundle",
  "meta": {
    "profile": [
      "http://hl7.org/fhir/us/mdi/StructureDefinition/Bundle-message-tox-to-mdi"
    ]
  },
  "identifier": {
    "system": "urn:ietf:rfc:3986",
    "value": "urn:uuid:683dde44f7664b03a20b6324f23986d9"
  },
  "type": "message",
  "entry": [
    {
      "fullUrl": "MessageHeader/033b23ae-9ec0-4ec0-92d3-5d9f3775cb37",
      "resource": {
        "resourceType": "MessageHeader",
        "id": "033b23ae-9ec0-4ec0-92d3-5d9f3775cb37",
        "meta": {
          "profile": [
            "http://hl7.org/fhir/us/mdi/StructureDefinition/MessageHeader-toxicology-to-mdi"
          ]
        },
        "eventCoding": {
          "system": "http://hl7.org/fhir/us/mdi/CodeSystem/CodeSystem-mdi-codes",
          "code": "tox-result-report",
          "display": "Toxicology Lab Results"
        },
        "source": {
          "name": "University of Florida Pathology Labs, Forensic Toxicology Laboratory",
          "software": "MS Access",
          "version": "1.2.3",
          "contact": {
            "system": "phone",
            "value": "+1 (555) 123 4567"
          },
          "endpoint": "http://uf.org/access/endpoint/1"
        },
        "focus": [
          {
            "reference": "DiagnosticReport/1f618975-b65e-4e8c-a667-36f8fc2010b6"
          }
        ]
      }
    },
    {
      "fullUrl": "DiagnosticReport/1f618975-b65e-4e8c-a667-36f8fc2010b6",
      "resource": {
        "resourceType": "DiagnosticReport",
        "id": "1f618975-b65e-4e8c-a667-36f8fc2010b6",
        "meta": {
          "profile": [
            "http://hl7.org/fhir/us/core/StructureDefinition/us-core-diagnosticreport-lab",
            "http://hl7.org/fhir/us/mdi/StructureDefinition/DiagnosticReport-toxicology-to-mdi"
          ]
        },
        "identifier": [
          {
            "type": {
              "coding": [
                {
                  "system": "http://hl7.org/fhir/us/mdi/CodeSystem/CodeSystem-mdi-codes",
                  "code": "tox-lab-case-number",
                  "display": "Toxicology Laboratory Case Number"
                }
              ]
            },
            "system": "http://uf-path-labs.org/fhir/lab-cases",
            "value": "R21-01578",
            "assigner": {
              "reference": "Organization/9f14e06a-663c-4c38-9e81-4a7af0738196"
            }
          }
        ],
        "status": "final",
        "category": [
          {
            "coding": [
              {
                "system": "http://terminology.hl7.org/CodeSystem/v2-0074",
                "code": "LAB",
                "display": "Laboratory"
              }
            ]
          }
        ],
        "code": {
          "coding": [
            {
              "system": "http://loinc.org",
              "code": "81273-5",
              "display": "fentaNYL and Norfentanyl panel - Specimen"
            }
          ]
        },
        "subject": {
          "reference": "Patient/982b36ce-c80a-443f-ba33-732054627f65",
          "display": "FREEMAN, Alice"
        },
        "effectiveDateTime": "2021-12-03T11:00:00Z",
        "issued": "2022-01-05T11:00:00+00:00",
        "performer": [
          {
            "reference": "Practitioner/7aacbf06-7bf3-4923-9139-a503c18b60fe"
          }
        ],
        "specimen": [
          {
            "reference": "Specimen/4116d81d-e479-41c1-b5df-f7b1b536c5b1",
            "display": "Whole blood sample (specimen)"
          },
          {
            "reference": "Specimen/56547115-332e-4527-aee6-b6c4324a6adc",
            "display": "Urine specimen (specimen)"
          },
          {
            "reference": "Specimen/9e7cabe9-3c13-4309-a7c2-f2898dbadd7f",
            "display": "Vitreous humor sample (specimen)"
          },
          {
            "reference": "Specimen/1a091f1b-d55c-4a8d-b710-7a93870354bf",
            "display": "Bile specimen (specimen)"
          },
          {
            "reference": "Specimen/44fe0d7a-3367-41b6-8067-a3c2af6ae19b",
            "display": "Tissue specimen from liver (specimen)"
          },
          {
            "reference": "Specimen/a921242b-109d-4c2c-9799-572f0d698792",
            "display": "Specimen from stomach (specimen)"
          }
        ],
        "result": [
          {
            "reference": "Observation/65eb356b-a6f2-47c5-9b7d-2e34cbfe3193",
            "display": "Ethanol [Mass/volume] in Blood by Gas chromatography"
          },
          {
            "reference": "Observation/1e3ef21b-adb6-480a-a5be-28d92961a2db",
            "display": "Despropionylfentanyl [Mass/volume] in Serum or Plasma"
          },
          {
            "reference": "Observation/45d416b6-5c76-4180-bd23-116862ac2c14",
            "display": "Acetyl norfentanyl [Mass/volume] in Serum, Plasma or Blood by Confirmatory method"
          },
          {
            "reference": "Observation/1cd112de-a998-47fc-85df-b16d51e58f83",
            "display": "fentaNYL [Mass/volume] in Blood by Confirmatory method"
          },
          {
            "reference": "Observation/6c22ca66-29e6-4864-9e20-ec114377b377",
            "display": "Ethanol [Mass/volume] in Urine by Confirmatory method"
          },
          {
            "reference": "Observation/86c9edec-1da9-471b-b969-bcdec3c3c7ca",
            "display": "Despropionylfentanyl [Mass/volume] in Serum or Plasma"
          },
          {
            "reference": "Observation/f301f1ea-b502-4f40-9d1e-eab0feb169f1",
            "display": "Acetyl fentanyl [Presence] in Urine by Confirmatory method"
          },
          {
            "reference": "Observation/ad304981-d9fb-436b-88ad-c7b459ee0d63",
            "display": "fentaNYL [Presence] in Urine"
          },
          {
            "reference": "Observation/a4aeb846-904a-48a6-abe3-673c0bf043d6",
            "display": "Norfentanyl [Presence] in Urine"
          },
          {
            "reference": "Observation/c943cc4a-811d-4e7e-86cf-d85e48dedf8a",
            "display": "Ketamine [Presence] in Urine"
          },
          {
            "reference": "Observation/91ecfb43-ef58-43b8-ac60-207b600069b6",
            "display": "Ethanol [Mass/volume] in Vitreous fluid"
          }
        ]
      }
    },
    {
      "fullUrl": "Patient/982b36ce-c80a-443f-ba33-732054627f65",
      "resource": {
        "resourceType": "Patient",
        "id": "982b36ce-c80a-443f-ba33-732054627f65",
        "meta": {
          "profile": [
            "http://hl7.org/fhir/us/core/StructureDefinition/us-core-patient"
          ]
        },
        "extension": [
          {
            "extension": [
              {
                "url": "ombCategory",
                "valueCoding": {
                  "system": "urn:oid:2.16.840.1.113883.6.238",
                  "code": "2106-3",
                  "display": "White"
                }
              },
              {
                "url": "detailed",
                "valueCoding": {
                  "system": "urn:oid:2.16.840.1.113883.6.238",
                  "code": "1010-8",
                  "display": "Apache"
                }
              },
              {
                "url": "text",
                "valueString": "Apache"
              }
            ],
            "url": "http://hl7.org/fhir/us/core/StructureDefinition/us-core-race"
          },
          {
            "extension": [
              {
                "url": "ombCategory",
                "valueCoding": {
                  "system": "urn:oid:2.16.840.1.113883.6.238",
                  "code": "2186-5",
                  "display": "Not Hispanic or Latino"
                }
              },
              {
                "url": "detailed",
                "valueCoding": {
                  "system": "urn:oid:2.16.840.1.113883.6.238",
                  "code": "2162-6",
                  "display": "Central American Indian"
                }
              },
              {
                "url": "text",
                "valueString": "Not Hispanic or Latino"
              }
            ],
            "url": "http://hl7.org/fhir/us/core/StructureDefinition/us-core-ethnicity"
          },
          {
            "url": "http://hl7.org/fhir/us/core/StructureDefinition/us-core-birthsex",
            "valueCode": "F"
          }
        ],
        "identifier": [
          {
            "use": "usual",
            "type": {
              "coding": [
                {
                  "system": "http://terminology.hl7.org/CodeSystem/v2-0203",
                  "code": "SS",
                  "display": "Social Security number"
                }
              ],
              "text": "Social Security number"
            },
            "system": "http://hospital.smarthealthit.org",
            "value": "987054321"
          }
        ],
        "name": [
          {
            "family": "FREEMAN",
            "given": [
              "Alice",
              "J"
            ]
          }
        ],
        "telecom": [
          {
            "system": "phone",
            "value": "212-867-5309",
            "use": "home"
          },
          {
            "system": "phone",
            "value": "212-867-5310",
            "use": "home"
          },
          {
            "system": "email",
            "value": "mywork@gtri.org",
            "use": "work"
          }
        ],
        "gender": "female",
        "birthDate": "1965-05-02",
        "deceasedDateTime": "2014-03-02",
        "address": [
          {
            "use": "home",
            "state": "TX",
            "postalCode": "77018",
            "country": "USA"
          }
        ]
      }
    },
    {
      "fullUrl": "Practitioner/7aacbf06-7bf3-4923-9139-a503c18b60fe",
      "resource": {
        "resourceType": "Practitioner",
        "id": "7aacbf06-7bf3-4923-9139-a503c18b60fe",
        "meta": {
          "profile": [
            "http://hl7.org/fhir/us/core/StructureDefinition/us-core-practitioner"
          ]
        },
        "identifier": [
          {
            "system": "http://hl7.org/fhir/sid/us-npi",
            "value": "555667777"
          }
        ],
        "name": [
          {
            "use": "official",
            "family": "Goldberger",
            "given": [
              "Bruce"
            ],
            "prefix": [
              "Dr"
            ]
          }
        ]
      }
    },
    {
      "fullUrl": "Organization/9f14e06a-663c-4c38-9e81-4a7af0738196",
      "resource": {
        "resourceType": "Organization",
        "id": "9f14e06a-663c-4c38-9e81-4a7af0738196",
        "meta": {
          "profile": [
            "http://hl7.org/fhir/us/core/StructureDefinition/us-core-organization"
          ]
        },
        "identifier": [
          {
            "system": "http://hl7.org/fhir/sid/us-npi",
            "value": "111223333"
          }
        ],
        "active": true,
        "type": [
          {
            "coding": [
              {
                "system": "http://terminology.hl7.org/CodeSystem/organization-type",
                "code": "prov",
                "display": "Healthcare Provider"
              }
            ]
          }
        ],
        "name": "UF Health Pathology Labs, Forensic Toxicology Laboratory",
        "telecom": [
          {
            "system": "phone",
            "value": "(352) 265-9900",
            "use": "work"
          }
        ],
        "address": [
          {
            "line": [
              "4800 SW 35th Drive"
            ],
            "city": "Gainesville",
            "state": "FL",
            "postalCode": "32608",
            "country": "USA"
          }
        ]
      }
    },
    {
      "fullUrl": "Specimen/4116d81d-e479-41c1-b5df-f7b1b536c5b1",
      "resource": {
        "resourceType": "Specimen",
        "id": "4116d81d-e479-41c1-b5df-f7b1b536c5b1",
        "meta": {
          "profile": [
            "http://hl7.org/fhir/us/mdi/StructureDefinition/Specimen-toxicology-lab"
          ]
        },
        "accessionIdentifier": {
          "system": "http://lab.acme.org/specimens/2021",
          "value": "X352356"
        },
        "status": "available",
        "type": {
          "coding": [
            {
              "system": "http://snomed.info/sct",
              "code": "258580003",
              "display": "Whole blood sample (specimen)"
            }
          ],
          "text": "Whole blood sample (specimen)"
        },
        "subject": {
          "reference": "Patient/982b36ce-c80a-443f-ba33-732054627f65"
        },
        "receivedTime": "2021-12-03T16:00:00Z",
        "collection": {
          "collectedDateTime": "2021-12-03T11:00:00Z",
          "bodySite": {
            "coding": [
              {
                "system": "http://snomed.info/sct",
                "code": "83419000",
                "display": "Femoral vein structure (body structure)"
              }
            ]
          }
        },
        "container": [
          {
            "description": "10mL GT tube",
            "type": {
              "coding": [
                {
                  "system": "http://snomed.info/sct",
                  "code": "702287009",
                  "display": "Non - evacuated blood collection tube, potassium oxalate / sodium fluoride(physical object)"
                }
              ],
              "text": "GT tube"
            },
            "specimenQuantity": {
              "value": 20,
              "unit": "ml"
            }
          }
        ]
      }
    },
    {
      "fullUrl": "Specimen/56547115-332e-4527-aee6-b6c4324a6adc",
      "resource": {
        "resourceType": "Specimen",
        "id": "56547115-332e-4527-aee6-b6c4324a6adc",
        "meta": {
          "profile": [
            "http://hl7.org/fhir/us/mdi/StructureDefinition/Specimen-toxicology-lab"
          ]
        },
        "accessionIdentifier": {
          "system": "http://lab.acme.org/specimens/2021",
          "value": "ZZZ352356"
        },
        "status": "available",
        "type": {
          "coding": [
            {
              "system": "http://snomed.info/sct",
              "code": "122575003",
              "display": "Urine specimen (specimen)"
            }
          ],
          "text": "Urine specimen (specimen)"
        },
        "subject": {
          "reference": "Patient/982b36ce-c80a-443f-ba33-732054627f65"
        },
        "receivedTime": "2021-12-03T16:00:00Z",
        "collection": {
          "collectedDateTime": "2021-12-03T11:00:00Z",
          "bodySite": {
            "coding": [
              {
                "system": "http://snomed.info/sct",
                "code": "83419000",
                "display": "Femoral vein structure (body structure)"
              }
            ]
          }
        },
        "container": [
          {
            "description": "10mL RT tube",
            "specimenQuantity": {
              "value": 5,
              "unit": "ml"
            }
          }
        ]
      }
    },
    {
      "fullUrl": "Specimen/9e7cabe9-3c13-4309-a7c2-f2898dbadd7f",
      "resource": {
        "resourceType": "Specimen",
        "id": "9e7cabe9-3c13-4309-a7c2-f2898dbadd7f",
        "meta": {
          "profile": [
            "http://hl7.org/fhir/us/mdi/StructureDefinition/Specimen-toxicology-lab"
          ]
        },
        "accessionIdentifier": {
          "system": "http://lab.acme.org/specimens/2021",
          "value": "XXX352356"
        },
        "status": "available",
        "type": {
          "coding": [
            {
              "system": "http://snomed.info/sct",
              "code": "258438000",
              "display": "Vitreous humor sample (specimen)"
            }
          ],
          "text": "Vitreous humor sample (specimen)"
        },
        "subject": {
          "reference": "Patient/982b36ce-c80a-443f-ba33-732054627f65"
        },
        "receivedTime": "2021-12-03T16:00:00Z",
        "collection": {
          "collectedDateTime": "2021-12-03T11:00:00Z",
          "bodySite": {
            "coding": [
              {
                "system": "http://snomed.info/sct",
                "code": "83419000",
                "display": "Femoral vein structure (body structure)"
              }
            ]
          }
        },
        "container": [
          {
            "description": "10mL RT tube",
            "specimenQuantity": {
              "value": 3,
              "unit": "ml"
            }
          }
        ]
      }
    },
    {
      "fullUrl": "Specimen/1a091f1b-d55c-4a8d-b710-7a93870354bf",
      "resource": {
        "resourceType": "Specimen",
        "id": "1a091f1b-d55c-4a8d-b710-7a93870354bf",
        "meta": {
          "profile": [
            "http://hl7.org/fhir/us/mdi/StructureDefinition/Specimen-toxicology-lab"
          ]
        },
        "accessionIdentifier": {
          "system": "http://lab.acme.org/specimens/2021",
          "value": "OO352356"
        },
        "status": "available",
        "type": {
          "coding": [
            {
              "system": "http://snomed.info/sct",
              "code": "119341000",
              "display": "Bile specimen (specimen)"
            }
          ],
          "text": "Bile specimen (specimen)"
        },
        "subject": {
          "reference": "Patient/982b36ce-c80a-443f-ba33-732054627f65"
        },
        "receivedTime": "2021-12-03T16:00:00Z",
        "container": [
          {
            "description": "3mL sample of bile specimen",
            "specimenQuantity": {
              "value": 3,
              "unit": "ml"
            }
          }
        ]
      }
    },
    {
      "fullUrl": "Specimen/44fe0d7a-3367-41b6-8067-a3c2af6ae19b",
      "resource": {
        "resourceType": "Specimen",
        "id": "44fe0d7a-3367-41b6-8067-a3c2af6ae19b",
        "meta": {
          "profile": [
            "http://hl7.org/fhir/us/mdi/StructureDefinition/Specimen-toxicology-lab"
          ]
        },
        "accessionIdentifier": {
          "system": "http://lab.acme.org/specimens/2021",
          "value": "DD352356"
        },
        "status": "available",
        "type": {
          "coding": [
            {
              "system": "http://snomed.info/sct",
              "code": "119379005",
              "display": "Tissue specimen from liver (specimen)"
            }
          ],
          "text": "Tissue specimen from liver (specimen)"
        },
        "subject": {
          "reference": "Patient/982b36ce-c80a-443f-ba33-732054627f65"
        },
        "receivedTime": "2021-12-03T16:00:00Z",
        "container": [
          {
            "description": "5mL sample of liver specimen",
            "specimenQuantity": {
              "value": 5,
              "unit": "ml"
            }
          }
        ]
      }
    },
    {
      "fullUrl": "Specimen/a921242b-109d-4c2c-9799-572f0d698792",
      "resource": {
        "resourceType": "Specimen",
        "id": "a921242b-109d-4c2c-9799-572f0d698792",
        "meta": {
          "profile": [
            "http://hl7.org/fhir/us/mdi/StructureDefinition/Specimen-toxicology-lab"
          ]
        },
        "accessionIdentifier": {
          "system": "http://lab.acme.org/specimens/2021",
          "value": "MM352356"
        },
        "status": "available",
        "type": {
          "coding": [
            {
              "system": "http://snomed.info/sct",
              "code": "258580003",
              "display": "Specimen from stomach (specimen)"
            }
          ],
          "text": "Specimen from stomach (specimen)"
        },
        "subject": {
          "reference": "Patient/982b36ce-c80a-443f-ba33-732054627f65"
        },
        "receivedTime": "2021-12-03T16:00:00Z",
        "collection": {
          "collectedDateTime": "2021-12-03T11:00:00Z",
          "bodySite": {
            "coding": [
              {
                "system": "http://snomed.info/sct",
                "code": "83419000",
                "display": "Femoral vein structure (body structure)"
              }
            ]
          }
        },
        "container": [
          {
            "description": "60mL sample of stomach contents specimen",
            "specimenQuantity": {
              "value": 60,
              "unit": "ml"
            }
          }
        ]
      }
    },
    {
      "fullUrl": "Observation/65eb356b-a6f2-47c5-9b7d-2e34cbfe3193",
      "resource": {
        "resourceType": "Observation",
        "id": "65eb356b-a6f2-47c5-9b7d-2e34cbfe3193",
        "meta": {
          "profile": [
            "http://hl7.org/fhir/us/core/StructureDefinition/us-core-observation-lab",
            "http://hl7.org/fhir/us/mdi/StructureDefinition/Observation-toxicology-lab-result"
          ]
        },
        "status": "final",
        "category": [
          {
            "coding": [
              {
                "system": "http://terminology.hl7.org/CodeSystem/observation-category",
                "code": "laboratory",
                "display": "Laboratory"
              }
            ]
          }
        ],
        "code": {
          "coding": [
            {
              "system": "http://loinc.org",
              "code": "56478-1",
              "display": "Ethanol [Mass/volume] in Blood by Gas chromatography"
            }
          ],
          "text": "Ethanol [Mass/volume] in Blood by Gas chromatography"
        },
        "subject": {
          "reference": "Patient/982b36ce-c80a-443f-ba33-732054627f65"
        },
        "effectiveDateTime": "2021-12-03",
        "valueQuantity": {
          "value": 0.145,
          "unit": "g/dL",
          "system": "http://unitsofmeasure.org"
        },
        "specimen": {
          "reference": "Specimen/4116d81d-e479-41c1-b5df-f7b1b536c5b1"
        }
      }
    },
    {
      "fullUrl": "Observation/1e3ef21b-adb6-480a-a5be-28d92961a2db",
      "resource": {
        "resourceType": "Observation",
        "id": "1e3ef21b-adb6-480a-a5be-28d92961a2db",
        "meta": {
          "profile": [
            "http://hl7.org/fhir/us/core/StructureDefinition/us-core-observation-lab",
            "http://hl7.org/fhir/us/mdi/StructureDefinition/Observation-toxicology-lab-result"
          ]
        },
        "status": "final",
        "category": [
          {
            "coding": [
              {
                "system": "http://terminology.hl7.org/CodeSystem/observation-category",
                "code": "laboratory",
                "display": "Laboratory"
              }
            ]
          }
        ],
        "code": {
          "coding": [
            {
              "system": "http://loinc.org",
              "code": "11072-6",
              "display": "Despropionylfentanyl [Mass/volume] in Serum or Plasma"
            }
          ],
          "text": "Despropionylfentanyl [Mass/volume] in Serum or Plasma"
        },
        "subject": {
          "reference": "Patient/982b36ce-c80a-443f-ba33-732054627f65"
        },
        "effectiveDateTime": "2021-12-03",
        "valueBoolean": true,
        "specimen": {
          "reference": "Specimen/4116d81d-e479-41c1-b5df-f7b1b536c5b1"
        }
      }
    },
    {
      "fullUrl": "Observation/45d416b6-5c76-4180-bd23-116862ac2c14",
      "resource": {
        "resourceType": "Observation",
        "id": "45d416b6-5c76-4180-bd23-116862ac2c14",
        "meta": {
          "profile": [
            "http://hl7.org/fhir/us/core/StructureDefinition/us-core-observation-lab",
            "http://hl7.org/fhir/us/mdi/StructureDefinition/Observation-toxicology-lab-result"
          ]
        },
        "status": "final",
        "category": [
          {
            "coding": [
              {
                "system": "http://terminology.hl7.org/CodeSystem/observation-category",
                "code": "laboratory",
                "display": "Laboratory"
              }
            ]
          }
        ],
        "code": {
          "coding": [
            {
              "system": "http://loinc.org",
              "code": "86223-5",
              "display": "Acetyl norfentanyl [Mass/volume] in Serum, Plasma or Blood by Confirmatory method"
            }
          ],
          "text": "Acetyl norfentanyl [Mass/volume] in Serum, Plasma or Blood by Confirmatory method"
        },
        "subject": {
          "reference": "Patient/982b36ce-c80a-443f-ba33-732054627f65"
        },
        "effectiveDateTime": "2021-12-03",
        "valueQuantity": {
          "value": 2,
          "unit": "ng/mL",
          "system": "http://unitsofmeasure.org"
        },
        "specimen": {
          "reference": "Specimen/4116d81d-e479-41c1-b5df-f7b1b536c5b1"
        }
      }
    },
    {
      "fullUrl": "Observation/1cd112de-a998-47fc-85df-b16d51e58f83",
      "resource": {
        "resourceType": "Observation",
        "id": "1cd112de-a998-47fc-85df-b16d51e58f83",
        "meta": {
          "profile": [
            "http://hl7.org/fhir/us/core/StructureDefinition/us-core-observation-lab",
            "http://hl7.org/fhir/us/mdi/StructureDefinition/Observation-toxicology-lab-result"
          ]
        },
        "status": "final",
        "category": [
          {
            "coding": [
              {
                "system": "http://terminology.hl7.org/CodeSystem/observation-category",
                "code": "laboratory",
                "display": "Laboratory"
              }
            ]
          }
        ],
        "code": {
          "coding": [
            {
              "system": "http://loinc.org",
              "code": "73938-3",
              "display": "fentaNYL [Mass/volume] in Blood by Confirmatory method"
            }
          ],
          "text": "fentaNYL [Mass/volume] in Blood by Confirmatory method"
        },
        "subject": {
          "reference": "Patient/982b36ce-c80a-443f-ba33-732054627f65"
        },
        "effectiveDateTime": "2021-12-03",
        "valueQuantity": {
          "value": 23,
          "unit": "ng/mL",
          "system": "http://unitsofmeasure.org"
        },
        "specimen": {
          "reference": "Specimen/4116d81d-e479-41c1-b5df-f7b1b536c5b1"
        }
      }
    },
    {
      "fullUrl": "Observation/6c22ca66-29e6-4864-9e20-ec114377b377",
      "resource": {
        "resourceType": "Observation",
        "id": "6c22ca66-29e6-4864-9e20-ec114377b377",
        "meta": {
          "profile": [
            "http://hl7.org/fhir/us/core/StructureDefinition/us-core-observation-lab",
            "http://hl7.org/fhir/us/mdi/StructureDefinition/Observation-toxicology-lab-result"
          ]
        },
        "status": "final",
        "category": [
          {
            "coding": [
              {
                "system": "http://terminology.hl7.org/CodeSystem/observation-category",
                "code": "laboratory",
                "display": "Laboratory"
              }
            ]
          }
        ],
        "code": {
          "coding": [
            {
              "system": "http://loinc.org",
              "code": "46983-3",
              "display": "Ethanol [Mass/volume] in Urine by Confirmatory method"
            }
          ],
          "text": "Ethanol [Mass/volume] in Urine by Confirmatory method"
        },
        "subject": {
          "reference": "Patient/982b36ce-c80a-443f-ba33-732054627f65"
        },
        "effectiveDateTime": "2021-12-03",
        "valueQuantity": {
          "value": 0.16,
          "unit": "g/dL",
          "system": "http://unitsofmeasure.org"
        },
        "specimen": {
          "reference": "Specimen/56547115-332e-4527-aee6-b6c4324a6adc"
        }
      }
    },
    {
      "fullUrl": "Observation/86c9edec-1da9-471b-b969-bcdec3c3c7ca",
      "resource": {
        "resourceType": "Observation",
        "id": "86c9edec-1da9-471b-b969-bcdec3c3c7ca",
        "meta": {
          "profile": [
            "http://hl7.org/fhir/us/core/StructureDefinition/us-core-observation-lab",
            "http://hl7.org/fhir/us/mdi/StructureDefinition/Observation-toxicology-lab-result"
          ]
        },
        "status": "final",
        "category": [
          {
            "coding": [
              {
                "system": "http://terminology.hl7.org/CodeSystem/observation-category",
                "code": "laboratory",
                "display": "Laboratory"
              }
            ]
          }
        ],
        "code": {
          "coding": [
            {
              "system": "http://loinc.org",
              "code": "11072-6",
              "display": "Despropionylfentanyl [Mass/volume] in Serum or Plasma"
            }
          ],
          "text": "Despropionylfentanyl [Mass/volume] in Serum or Plasma"
        },
        "subject": {
          "reference": "Patient/982b36ce-c80a-443f-ba33-732054627f65"
        },
        "effectiveDateTime": "2021-12-03",
        "valueBoolean": true,
        "specimen": {
          "reference": "Specimen/56547115-332e-4527-aee6-b6c4324a6adc"
        }
      }
    },
    {
      "fullUrl": "Observation/f301f1ea-b502-4f40-9d1e-eab0feb169f1",
      "resource": {
        "resourceType": "Observation",
        "id": "f301f1ea-b502-4f40-9d1e-eab0feb169f1",
        "meta": {
          "profile": [
            "http://hl7.org/fhir/us/core/StructureDefinition/us-core-observation-lab",
            "http://hl7.org/fhir/us/mdi/StructureDefinition/Observation-toxicology-lab-result"
          ]
        },
        "status": "final",
        "category": [
          {
            "coding": [
              {
                "system": "http://terminology.hl7.org/CodeSystem/observation-category",
                "code": "laboratory",
                "display": "Laboratory"
              }
            ]
          }
        ],
        "code": {
          "coding": [
            {
              "system": "http://loinc.org",
              "code": "74810-3",
              "display": "Acetyl fentanyl [Presence] in Urine by Confirmatory method"
            }
          ],
          "text": "Acetyl fentanyl [Presence] in Urine by Confirmatory method"
        },
        "subject": {
          "reference": "Patient/982b36ce-c80a-443f-ba33-732054627f65"
        },
        "effectiveDateTime": "2021-12-03",
        "valueBoolean": true,
        "specimen": {
          "reference": "Specimen/56547115-332e-4527-aee6-b6c4324a6adc"
        }
      }
    },
    {
      "fullUrl": "Observation/ad304981-d9fb-436b-88ad-c7b459ee0d63",
      "resource": {
        "resourceType": "Observation",
        "id": "ad304981-d9fb-436b-88ad-c7b459ee0d63",
        "meta": {
          "profile": [
            "http://hl7.org/fhir/us/core/StructureDefinition/us-core-observation-lab",
            "http://hl7.org/fhir/us/mdi/StructureDefinition/Observation-toxicology-lab-result"
          ]
        },
        "status": "final",
        "category": [
          {
            "coding": [
              {
                "system": "http://terminology.hl7.org/CodeSystem/observation-category",
                "code": "laboratory",
                "display": "Laboratory"
              }
            ]
          }
        ],
        "code": {
          "coding": [
            {
              "system": "http://loinc.org",
              "code": "11235-9",
              "display": "fentaNYL [Presence] in Urine"
            }
          ],
          "text": "fentaNYL [Presence] in Urine"
        },
        "subject": {
          "reference": "Patient/982b36ce-c80a-443f-ba33-732054627f65"
        },
        "effectiveDateTime": "2021-12-03",
        "valueBoolean": true,
        "specimen": {
          "reference": "Specimen/56547115-332e-4527-aee6-b6c4324a6adc"
        }
      }
    },
    {
      "fullUrl": "Observation/a4aeb846-904a-48a6-abe3-673c0bf043d6",
      "resource": {
        "resourceType": "Observation",
        "id": "a4aeb846-904a-48a6-abe3-673c0bf043d6",
        "meta": {
          "profile": [
            "http://hl7.org/fhir/us/core/StructureDefinition/us-core-observation-lab",
            "http://hl7.org/fhir/us/mdi/StructureDefinition/Observation-toxicology-lab-result"
          ]
        },
        "status": "final",
        "category": [
          {
            "coding": [
              {
                "system": "http://terminology.hl7.org/CodeSystem/observation-category",
                "code": "laboratory",
                "display": "Laboratory"
              }
            ]
          }
        ],
        "code": {
          "coding": [
            {
              "system": "http://loinc.org",
              "code": "43199-9",
              "display": "Norfentanyl [Presence] in Urine"
            }
          ],
          "text": "Norfentanyl [Presence] in Urine"
        },
        "subject": {
          "reference": "Patient/982b36ce-c80a-443f-ba33-732054627f65"
        },
        "effectiveDateTime": "2021-12-03",
        "valueBoolean": true,
        "specimen": {
          "reference": "Specimen/56547115-332e-4527-aee6-b6c4324a6adc"
        }
      }
    },
    {
      "fullUrl": "Observation/c943cc4a-811d-4e7e-86cf-d85e48dedf8a",
      "resource": {
        "resourceType": "Observation",
        "id": "c943cc4a-811d-4e7e-86cf-d85e48dedf8a",
        "meta": {
          "profile": [
            "http://hl7.org/fhir/us/core/StructureDefinition/us-core-observation-lab",
            "http://hl7.org/fhir/us/mdi/StructureDefinition/Observation-toxicology-lab-result"
          ]
        },
        "status": "final",
        "category": [
          {
            "coding": [
              {
                "system": "http://terminology.hl7.org/CodeSystem/observation-category",
                "code": "laboratory",
                "display": "Laboratory"
              }
            ]
          }
        ],
        "code": {
          "coding": [
            {
              "system": "http://loinc.org",
              "code": "12327-3",
              "display": "Ketamine [Presence] in Urine"
            }
          ],
          "text": "Ketamine [Presence] in Urine"
        },
        "subject": {
          "reference": "Patient/982b36ce-c80a-443f-ba33-732054627f65"
        },
        "effectiveDateTime": "2021-12-03",
        "valueBoolean": true,
        "specimen": {
          "reference": "Specimen/56547115-332e-4527-aee6-b6c4324a6adc"
        }
      }
    },
    {
      "fullUrl": "Observation/91ecfb43-ef58-43b8-ac60-207b600069b6",
      "resource": {
        "resourceType": "Observation",
        "id": "91ecfb43-ef58-43b8-ac60-207b600069b6",
        "meta": {
          "profile": [
            "http://hl7.org/fhir/us/core/StructureDefinition/us-core-observation-lab",
            "http://hl7.org/fhir/us/mdi/StructureDefinition/Observation-toxicology-lab-result"
          ]
        },
        "status": "final",
        "category": [
          {
            "coding": [
              {
                "system": "http://terminology.hl7.org/CodeSystem/observation-category",
                "code": "laboratory",
                "display": "Laboratory"
              }
            ]
          }
        ],
        "code": {
          "coding": [
            {
              "system": "http://loinc.org",
              "code": "12465-1",
              "display": "Ethanol [Mass/volume] in Vitreous fluid"
            }
          ],
          "text": "Ethanol [Mass/volume] in Vitreous fluid"
        },
        "subject": {
          "reference": "Patient/982b36ce-c80a-443f-ba33-732054627f65"
        },
        "effectiveDateTime": "2021-12-03",
        "valueQuantity": {
          "value": 0.133,
          "unit": "g/dL",
          "system": "http://unitsofmeasure.org"
        },
        "specimen": {
          "reference": "Specimen/9e7cabe9-3c13-4309-a7c2-f2898dbadd7f"
        }
      }
    }
  ]
}