{
  "resourceType": "Bundle",
  "meta": {
    "profile": [
      "http://hl7.org/fhir/us/mdi/StructureDefinition/Bundle-message-tox-to-mdi"
    ]
  },
  "identifier": {
    "system": "urn:ietf:rfc:3986",
    "value": "urn:uuid:683dde44f7664b03a20b6324f23986d9"
  },
  "type": "message",
  "entry": [
    {
      "fullUrl": "MessageHeader/24b4e6e4-d8f4-47f7-ac71-1a9b91354a8d",
      "resource": {
        "resourceType": "MessageHeader",
        "id": "24b4e6e4-d8f4-47f7-ac71-1a9b91354a8d",
        "meta": {
          "profile": [
            "http://hl7.org/fhir/us/mdi/StructureDefinition/MessageHeader-toxicology-to-mdi"
          ]
        },
        "eventCoding": {
          "system": "http://hl7.org/fhir/us/mdi/CodeSystem/CodeSystem-mdi-codes",
          "code": "tox-result-report",
          "display": "Toxicology Lab Results"
        },
        "source": {
          "name": "University of Florida Pathology Labs, Forensic Toxicology Laboratory",
          "software": "MS Access",
          "version": "1.2.3",
          "contact": {
            "system": "phone",
            "value": "+1 (555) 123 4567"
          },
          "endpoint": "http://uf.org/access/endpoint/1"
        },
        "focus": [
          {
            "reference": "DiagnosticReport/91cd978c-77e9-4f67-8499-613b37a871dc"
          }
        ]
      }
    },
    {
      "fullUrl": "DiagnosticReport/91cd978c-77e9-4f67-8499-613b37a871dc",
      "resource": {
        "resourceType": "DiagnosticReport",
        "id": "91cd978c-77e9-4f67-8499-613b37a871dc",
        "meta": {
          "profile": [
            "http://hl7.org/fhir/us/core/StructureDefinition/us-core-diagnosticreport-lab",
            "http://hl7.org/fhir/us/mdi/StructureDefinition/DiagnosticReport-toxicology-to-mdi"
          ]
        },
        "identifier": [
          {
            "type": {
              "coding": [
                {
                  "system": "http://hl7.org/fhir/us/mdi/CodeSystem/CodeSystem-mdi-codes",
                  "code": "tox-lab-case-number",
                  "display": "Toxicology Laboratory Case Number"
                }
              ]
            },
            "system": "http://uf-path-labs.org/fhir/lab-cases",
            "value": "R21-01578",
            "assigner": {
              "reference": "Organization/71404701-35f9-4521-9251-f976fdc34eb4"
            }
          }
        ],
        "status": "final",
        "category": [
          {
            "coding": [
              {
                "system": "http://terminology.hl7.org/CodeSystem/v2-0074",
                "code": "LAB",
                "display": "Laboratory"
              }
            ]
          }
        ],
        "code": {
          "coding": [
            {
              "system": "http://loinc.org",
              "code": "81273-5",
              "display": "fentaNYL and Norfentanyl panel - Specimen"
            }
          ]
        },
        "subject": {
          "reference": "Patient/efda7dfa-5abb-41cb-b5d2-bbe520f5229d",
          "display": "FREEMAN, Alice"
        },
        "effectiveDateTime": "2021-12-03T11:00:00Z",
        "issued": "2022-01-05T11:00:00+00:00",
        "performer": [
          {
            "reference": "Practitioner/f583b86c-37b5-45b2-bca3-53faca4819e3"
          }
        ],
        "specimen": [
          {
            "reference": "Specimen/874b591f-b36f-4ea8-b00b-8d9e98acdb1b",
            "display": "Whole blood sample (specimen)"
          },
          {
            "reference": "Specimen/4bfefc45-3413-449b-ad9a-88514043892b",
            "display": "Urine specimen (specimen)"
          },
          {
            "reference": "Specimen/2213a7db-8065-4d7d-9bd0-63d5d3535c38",
            "display": "Vitreous humor sample (specimen)"
          },
          {
            "reference": "Specimen/e6769438-8b84-4a1e-b3b4-b7f9807c19c2",
            "display": "Bile specimen (specimen)"
          },
          {
            "reference": "Specimen/febb3d35-b966-4e9b-8010-a33d89156ebd",
            "display": "Tissue specimen from liver (specimen)"
          },
          {
            "reference": "Specimen/7640674c-e035-4e95-a5a4-a41f18302b42",
            "display": "Specimen from stomach (specimen)"
          }
        ],
        "result": [
          {
            "reference": "Observation/df95bf62-8172-4be5-a544-9adaa17d252f",
            "display": "Ethanol [Mass/volume] in Blood by Gas chromatography"
          },
          {
            "reference": "Observation/3d57c1f0-5e6a-4aca-997e-c894429facd1",
            "display": "Despropionylfentanyl [Mass/volume] in Serum or Plasma"
          },
          {
            "reference": "Observation/7d9316b2-4870-4868-8d9c-74f71b225104",
            "display": "Acetyl norfentanyl [Mass/volume] in Serum, Plasma or Blood by Confirmatory method"
          },
          {
            "reference": "Observation/f4e11db3-086e-4238-bb9d-a1748ebe149d",
            "display": "fentaNYL [Mass/volume] in Blood by Confirmatory method"
          },
          {
            "reference": "Observation/42b77898-9d5e-43fc-ac5b-9cb0ef975029",
            "display": "Ethanol [Mass/volume] in Urine by Confirmatory method"
          },
          {
            "reference": "Observation/e55160ce-006b-4738-9c02-103c7d0cc5d2",
            "display": "Despropionylfentanyl [Mass/volume] in Serum or Plasma"
          },
          {
            "reference": "Observation/366f4693-13ea-4498-a5c6-8c6f380071fe",
            "display": "Acetyl fentanyl [Presence] in Urine by Confirmatory method"
          },
          {
            "reference": "Observation/d03a7819-27e0-4151-8c51-8e4ea99ea96d",
            "display": "fentaNYL [Presence] in Urine"
          },
          {
            "reference": "Observation/5746dc24-b1b7-4bd0-a7d9-89187cb21cec",
            "display": "Norfentanyl [Presence] in Urine"
          },
          {
            "reference": "Observation/93b725de-84b7-4f5c-818d-856a8143bacb",
            "display": "Ketamine [Presence] in Urine"
          },
          {
            "reference": "Observation/a7cb15c7-7365-41cb-982e-eb4858081ad1",
            "display": "Ethanol [Mass/volume] in Vitreous fluid"
          }
        ]
      }
    },
    {
      "fullUrl": "Patient/efda7dfa-5abb-41cb-b5d2-bbe520f5229d",
      "resource": {
        "resourceType": "Patient",
        "id": "efda7dfa-5abb-41cb-b5d2-bbe520f5229d",
        "meta": {
          "profile": [
            "http://hl7.org/fhir/us/core/StructureDefinition/us-core-patient"
          ]
        },
        "extension": [
          {
            "extension": [
              {
                "url": "ombCategory",
                "valueCoding": {
                  "system": "urn:oid:2.16.840.1.113883.6.238",
                  "code": "2106-3",
                  "display": "White"
                }
              },
              {
                "url": "detailed",
                "valueCoding": {
                  "system": "urn:oid:2.16.840.1.113883.6.238",
                  "code": "1010-8",
                  "display": "Apache"
                }
              },
              {
                "url": "text",
                "valueString": "Apache"
              }
            ],
            "url": "http://hl7.org/fhir/us/core/StructureDefinition/us-core-race"
          },
          {
            "extension": [
              {
                "url": "ombCategory",
                "valueCoding": {
                  "system": "urn:oid:2.16.840.1.113883.6.238",
                  "code": "2186-5",
                  "display": "Not Hispanic or Latino"
                }
              },
              {
                "url": "detailed",
                "valueCoding": {
                  "system": "urn:oid:2.16.840.1.113883.6.238",
                  "code": "2162-6",
                  "display": "Central American Indian"
                }
              },
              {
                "url": "text",
                "valueString": "Not Hispanic or Latino"
              }
            ],
            "url": "http://hl7.org/fhir/us/core/StructureDefinition/us-core-ethnicity"
          },
          {
            "url": "http://hl7.org/fhir/us/core/StructureDefinition/us-core-birthsex",
            "valueCode": "F"
          }
        ],
        "identifier": [
          {
            "use": "usual",
            "type": {
              "coding": [
                {
                  "system": "http://terminology.hl7.org/CodeSystem/v2-0203",
                  "code": "SS",
                  "display": "Social Security number"
                }
              ],
              "text": "Social Security number"
            },
            "system": "http://hospital.smarthealthit.org",
            "value": "987054321"
          }
        ],
        "name": [
          {
            "family": "FREEMAN",
            "given": [
              "Alice",
              "J"
            ]
          }
        ],
        "telecom": [
          {
            "system": "phone",
            "value": "212-867-5309",
            "use": "home"
          },
          {
            "system": "phone",
            "value": "212-867-5310",
            "use": "home"
          },
          {
            "system": "email",
            "value": "mywork@gtri.org",
            "use": "work"
          }
        ],
        "gender": "female",
        "birthDate": "1965-05-02",
        "deceasedDateTime": "2014-03-02",
        "address": [
          {
            "use": "home",
            "state": "TX",
            "postalCode": "77018",
            "country": "USA"
          }
        ]
      }
    },
    {
      "fullUrl": "Practitioner/f583b86c-37b5-45b2-bca3-53faca4819e3",
      "resource": {
        "resourceType": "Practitioner",
        "id": "f583b86c-37b5-45b2-bca3-53faca4819e3",
        "meta": {
          "profile": [
            "http://hl7.org/fhir/us/core/StructureDefinition/us-core-practitioner"
          ]
        },
        "identifier": [
          {
            "system": "http://hl7.org/fhir/sid/us-npi",
            "value": "555667777"
          }
        ],
        "name": [
          {
            "use": "official",
            "family": "Goldberger",
            "given": [
              "Bruce"
            ],
            "prefix": [
              "Dr"
            ]
          }
        ]
      }
    },
    {
      "fullUrl": "Organization/71404701-35f9-4521-9251-f976fdc34eb4",
      "resource": {
        "resourceType": "Organization",
        "id": "71404701-35f9-4521-9251-f976fdc34eb4",
        "meta": {
          "profile": [
            "http://hl7.org/fhir/us/core/StructureDefinition/us-core-organization"
          ]
        },
        "identifier": [
          {
            "system": "http://hl7.org/fhir/sid/us-npi",
            "value": "111223333"
          }
        ],
        "active": true,
        "type": [
          {
            "coding": [
              {
                "system": "http://terminology.hl7.org/CodeSystem/organization-type",
                "code": "prov",
                "display": "Healthcare Provider"
              }
            ]
          }
        ],
        "name": "UF Health Pathology Labs, Forensic Toxicology Laboratory",
        "telecom": [
          {
            "system": "phone",
            "value": "(352) 265-9900",
            "use": "work"
          }
        ],
        "address": [
          {
            "line": [
              "4800 SW 35th Drive"
            ],
            "city": "Gainesville",
            "state": "FL",
            "postalCode": "32608",
            "country": "USA"
          }
        ]
      }
    },
    {
      "fullUrl": "Specimen/874b591f-b36f-4ea8-b00b-8d9e98acdb1b",
      "resource": {
        "resourceType": "Specimen",
        "id": "874b591f-b36f-4ea8-b00b-8d9e98acdb1b",
        "meta": {
          "profile": [
            "http://hl7.org/fhir/us/mdi/StructureDefinition/Specimen-toxicology-lab"
          ]
        },
        "accessionIdentifier": {
          "system": "http://lab.acme.org/specimens/2021",
          "value": "X352356"
        },
        "status": "available",
        "type": {
          "coding": [
            {
              "system": "http://snomed.info/sct",
              "code": "258580003",
              "display": "Whole blood sample (specimen)"
            }
          ],
          "text": "Whole blood sample (specimen)"
        },
        "subject": {
          "reference": "Patient/efda7dfa-5abb-41cb-b5d2-bbe520f5229d"
        },
        "receivedTime": "2021-12-03T16:00:00Z",
        "collection": {
          "collectedDateTime": "2021-12-03T11:00:00Z",
          "bodySite": {
            "coding": [
              {
                "system": "http://snomed.info/sct",
                "code": "83419000",
                "display": "Femoral vein structure (body structure)"
              }
            ]
          }
        },
        "container": [
          {
            "description": "10mL GT tube",
            "type": {
              "coding": [
                {
                  "system": "http://snomed.info/sct",
                  "code": "702287009",
                  "display": "Non - evacuated blood collection tube, potassium oxalate / sodium fluoride(physical object)"
                }
              ],
              "text": "GT tube"
            },
            "specimenQuantity": {
              "value": 20,
              "unit": "ml"
            }
          }
        ]
      }
    },
    {
      "fullUrl": "Specimen/4bfefc45-3413-449b-ad9a-88514043892b",
      "resource": {
        "resourceType": "Specimen",
        "id": "4bfefc45-3413-449b-ad9a-88514043892b",
        "meta": {
          "profile": [
            "http://hl7.org/fhir/us/mdi/StructureDefinition/Specimen-toxicology-lab"
          ]
        },
        "accessionIdentifier": {
          "system": "http://lab.acme.org/specimens/2021",
          "value": "ZZZ352356"
        },
        "status": "available",
        "type": {
          "coding": [
            {
              "system": "http://snomed.info/sct",
              "code": "122575003",
              "display": "Urine specimen (specimen)"
            }
          ],
          "text": "Urine specimen (specimen)"
        },
        "subject": {
          "reference": "Patient/efda7dfa-5abb-41cb-b5d2-bbe520f5229d"
        },
        "receivedTime": "2021-12-03T16:00:00Z",
        "collection": {
          "collectedDateTime": "2021-12-03T11:00:00Z",
          "bodySite": {
            "coding": [
              {
                "system": "http://snomed.info/sct",
                "code": "83419000",
                "display": "Femoral vein structure (body structure)"
              }
            ]
          }
        },
        "container": [
          {
            "description": "10mL RT tube",
            "specimenQuantity": {
              "value": 5,
              "unit": "ml"
            }
          }
        ]
      }
    },
    {
      "fullUrl": "Specimen/2213a7db-8065-4d7d-9bd0-63d5d3535c38",
      "resource": {
        "resourceType": "Specimen",
        "id": "2213a7db-8065-4d7d-9bd0-63d5d3535c38",
        "meta": {
          "profile": [
            "http://hl7.org/fhir/us/mdi/StructureDefinition/Specimen-toxicology-lab"
          ]
        },
        "accessionIdentifier": {
          "system": "http://lab.acme.org/specimens/2021",
          "value": "XXX352356"
        },
        "status": "available",
        "type": {
          "coding": [
            {
              "system": "http://snomed.info/sct",
              "code": "258438000",
              "display": "Vitreous humor sample (specimen)"
            }
          ],
          "text": "Vitreous humor sample (specimen)"
        },
        "subject": {
          "reference": "Patient/efda7dfa-5abb-41cb-b5d2-bbe520f5229d"
        },
        "receivedTime": "2021-12-03T16:00:00Z",
        "collection": {
          "collectedDateTime": "2021-12-03T11:00:00Z",
          "bodySite": {
            "coding": [
              {
                "system": "http://snomed.info/sct",
                "code": "83419000",
                "display": "Femoral vein structure (body structure)"
              }
            ]
          }
        },
        "container": [
          {
            "description": "10mL RT tube",
            "specimenQuantity": {
              "value": 3,
              "unit": "ml"
            }
          }
        ]
      }
    },
    {
      "fullUrl": "Specimen/e6769438-8b84-4a1e-b3b4-b7f9807c19c2",
      "resource": {
        "resourceType": "Specimen",
        "id": "e6769438-8b84-4a1e-b3b4-b7f9807c19c2",
        "meta": {
          "profile": [
            "http://hl7.org/fhir/us/mdi/StructureDefinition/Specimen-toxicology-lab"
          ]
        },
        "accessionIdentifier": {
          "system": "http://lab.acme.org/specimens/2021",
          "value": "OO352356"
        },
        "status": "available",
        "type": {
          "coding": [
            {
              "system": "http://snomed.info/sct",
              "code": "119341000",
              "display": "Bile specimen (specimen)"
            }
          ],
          "text": "Bile specimen (specimen)"
        },
        "subject": {
          "reference": "Patient/efda7dfa-5abb-41cb-b5d2-bbe520f5229d"
        },
        "receivedTime": "2021-12-03T16:00:00Z",
        "container": [
          {
            "description": "3mL sample of bile specimen",
            "specimenQuantity": {
              "value": 3,
              "unit": "ml"
            }
          }
        ]
      }
    },
    {
      "fullUrl": "Specimen/febb3d35-b966-4e9b-8010-a33d89156ebd",
      "resource": {
        "resourceType": "Specimen",
        "id": "febb3d35-b966-4e9b-8010-a33d89156ebd",
        "meta": {
          "profile": [
            "http://hl7.org/fhir/us/mdi/StructureDefinition/Specimen-toxicology-lab"
          ]
        },
        "accessionIdentifier": {
          "system": "http://lab.acme.org/specimens/2021",
          "value": "DD352356"
        },
        "status": "available",
        "type": {
          "coding": [
            {
              "system": "http://snomed.info/sct",
              "code": "119379005",
              "display": "Tissue specimen from liver (specimen)"
            }
          ],
          "text": "Tissue specimen from liver (specimen)"
        },
        "subject": {
          "reference": "Patient/efda7dfa-5abb-41cb-b5d2-bbe520f5229d"
        },
        "receivedTime": "2021-12-03T16:00:00Z",
        "container": [
          {
            "description": "5mL sample of liver specimen",
            "specimenQuantity": {
              "value": 5,
              "unit": "ml"
            }
          }
        ]
      }
    },
    {
      "fullUrl": "Specimen/7640674c-e035-4e95-a5a4-a41f18302b42",
      "resource": {
        "resourceType": "Specimen",
        "id": "7640674c-e035-4e95-a5a4-a41f18302b42",
        "meta": {
          "profile": [
            "http://hl7.org/fhir/us/mdi/StructureDefinition/Specimen-toxicology-lab"
          ]
        },
        "accessionIdentifier": {
          "system": "http://lab.acme.org/specimens/2021",
          "value": "MM352356"
        },
        "status": "available",
        "type": {
          "coding": [
            {
              "system": "http://snomed.info/sct",
              "code": "258580003",
              "display": "Specimen from stomach (specimen)"
            }
          ],
          "text": "Specimen from stomach (specimen)"
        },
        "subject": {
          "reference": "Patient/efda7dfa-5abb-41cb-b5d2-bbe520f5229d"
        },
        "receivedTime": "2021-12-03T16:00:00Z",
        "collection": {
          "collectedDateTime": "2021-12-03T11:00:00Z",
          "bodySite": {
            "coding": [
              {
                "system": "http://snomed.info/sct",
                "code": "83419000",
                "display": "Femoral vein structure (body structure)"
              }
            ]
          }
        },
        "container": [
          {
            "description": "60mL sample of stomach contents specimen",
            "specimenQuantity": {
              "value": 60,
              "unit": "ml"
            }
          }
        ]
      }
    },
    {
      "fullUrl": "Observation/df95bf62-8172-4be5-a544-9adaa17d252f",
      "resource": {
        "resourceType": "Observation",
        "id": "df95bf62-8172-4be5-a544-9adaa17d252f",
        "meta": {
          "profile": [
            "http://hl7.org/fhir/us/core/StructureDefinition/us-core-observation-lab",
            "http://hl7.org/fhir/us/mdi/StructureDefinition/Observation-toxicology-lab-result"
          ]
        },
        "status": "final",
        "category": [
          {
            "coding": [
              {
                "system": "http://terminology.hl7.org/CodeSystem/observation-category",
                "code": "laboratory",
                "display": "Laboratory"
              }
            ]
          }
        ],
        "code": {
          "coding": [
            {
              "system": "http://loinc.org",
              "code": "56478-1",
              "display": "Ethanol [Mass/volume] in Blood by Gas chromatography"
            }
          ],
          "text": "Ethanol [Mass/volume] in Blood by Gas chromatography"
        },
        "subject": {
          "reference": "Patient/efda7dfa-5abb-41cb-b5d2-bbe520f5229d"
        },
        "effectiveDateTime": "2021-12-03",
        "valueQuantity": {
          "value": 0.145,
          "unit": "g/dL",
          "system": "http://unitsofmeasure.org"
        },
        "specimen": {
          "reference": "Specimen/874b591f-b36f-4ea8-b00b-8d9e98acdb1b"
        }
      }
    },
    {
      "fullUrl": "Observation/3d57c1f0-5e6a-4aca-997e-c894429facd1",
      "resource": {
        "resourceType": "Observation",
        "id": "3d57c1f0-5e6a-4aca-997e-c894429facd1",
        "meta": {
          "profile": [
            "http://hl7.org/fhir/us/core/StructureDefinition/us-core-observation-lab",
            "http://hl7.org/fhir/us/mdi/StructureDefinition/Observation-toxicology-lab-result"
          ]
        },
        "status": "final",
        "category": [
          {
            "coding": [
              {
                "system": "http://terminology.hl7.org/CodeSystem/observation-category",
                "code": "laboratory",
                "display": "Laboratory"
              }
            ]
          }
        ],
        "code": {
          "coding": [
            {
              "system": "http://loinc.org",
              "code": "11072-6",
              "display": "Despropionylfentanyl [Mass/volume] in Serum or Plasma"
            }
          ],
          "text": "Despropionylfentanyl [Mass/volume] in Serum or Plasma"
        },
        "subject": {
          "reference": "Patient/efda7dfa-5abb-41cb-b5d2-bbe520f5229d"
        },
        "effectiveDateTime": "2021-12-03",
        "valueBoolean": true,
        "specimen": {
          "reference": "Specimen/874b591f-b36f-4ea8-b00b-8d9e98acdb1b"
        }
      }
    },
    {
      "fullUrl": "Observation/7d9316b2-4870-4868-8d9c-74f71b225104",
      "resource": {
        "resourceType": "Observation",
        "id": "7d9316b2-4870-4868-8d9c-74f71b225104",
        "meta": {
          "profile": [
            "http://hl7.org/fhir/us/core/StructureDefinition/us-core-observation-lab",
            "http://hl7.org/fhir/us/mdi/StructureDefinition/Observation-toxicology-lab-result"
          ]
        },
        "status": "final",
        "category": [
          {
            "coding": [
              {
                "system": "http://terminology.hl7.org/CodeSystem/observation-category",
                "code": "laboratory",
                "display": "Laboratory"
              }
            ]
          }
        ],
        "code": {
          "coding": [
            {
              "system": "http://loinc.org",
              "code": "86223-5",
              "display": "Acetyl norfentanyl [Mass/volume] in Serum, Plasma or Blood by Confirmatory method"
            }
          ],
          "text": "Acetyl norfentanyl [Mass/volume] in Serum, Plasma or Blood by Confirmatory method"
        },
        "subject": {
          "reference": "Patient/efda7dfa-5abb-41cb-b5d2-bbe520f5229d"
        },
        "effectiveDateTime": "2021-12-03",
        "valueQuantity": {
          "value": 2,
          "unit": "ng/mL",
          "system": "http://unitsofmeasure.org"
        },
        "specimen": {
          "reference": "Specimen/874b591f-b36f-4ea8-b00b-8d9e98acdb1b"
        }
      }
    },
    {
      "fullUrl": "Observation/f4e11db3-086e-4238-bb9d-a1748ebe149d",
      "resource": {
        "resourceType": "Observation",
        "id": "f4e11db3-086e-4238-bb9d-a1748ebe149d",
        "meta": {
          "profile": [
            "http://hl7.org/fhir/us/core/StructureDefinition/us-core-observation-lab",
            "http://hl7.org/fhir/us/mdi/StructureDefinition/Observation-toxicology-lab-result"
          ]
        },
        "status": "final",
        "category": [
          {
            "coding": [
              {
                "system": "http://terminology.hl7.org/CodeSystem/observation-category",
                "code": "laboratory",
                "display": "Laboratory"
              }
            ]
          }
        ],
        "code": {
          "coding": [
            {
              "system": "http://loinc.org",
              "code": "73938-3",
              "display": "fentaNYL [Mass/volume] in Blood by Confirmatory method"
            }
          ],
          "text": "fentaNYL [Mass/volume] in Blood by Confirmatory method"
        },
        "subject": {
          "reference": "Patient/efda7dfa-5abb-41cb-b5d2-bbe520f5229d"
        },
        "effectiveDateTime": "2021-12-03",
        "valueQuantity": {
          "value": 23,
          "unit": "ng/mL",
          "system": "http://unitsofmeasure.org"
        },
        "specimen": {
          "reference": "Specimen/874b591f-b36f-4ea8-b00b-8d9e98acdb1b"
        }
      }
    },
    {
      "fullUrl": "Observation/42b77898-9d5e-43fc-ac5b-9cb0ef975029",
      "resource": {
        "resourceType": "Observation",
        "id": "42b77898-9d5e-43fc-ac5b-9cb0ef975029",
        "meta": {
          "profile": [
            "http://hl7.org/fhir/us/core/StructureDefinition/us-core-observation-lab",
            "http://hl7.org/fhir/us/mdi/StructureDefinition/Observation-toxicology-lab-result"
          ]
        },
        "status": "final",
        "category": [
          {
            "coding": [
              {
                "system": "http://terminology.hl7.org/CodeSystem/observation-category",
                "code": "laboratory",
                "display": "Laboratory"
              }
            ]
          }
        ],
        "code": {
          "coding": [
            {
              "system": "http://loinc.org",
              "code": "46983-3",
              "display": "Ethanol [Mass/volume] in Urine by Confirmatory method"
            }
          ],
          "text": "Ethanol [Mass/volume] in Urine by Confirmatory method"
        },
        "subject": {
          "reference": "Patient/efda7dfa-5abb-41cb-b5d2-bbe520f5229d"
        },
        "effectiveDateTime": "2021-12-03",
        "valueQuantity": {
          "value": 0.16,
          "unit": "g/dL",
          "system": "http://unitsofmeasure.org"
        },
        "specimen": {
          "reference": "Specimen/4bfefc45-3413-449b-ad9a-88514043892b"
        }
      }
    },
    {
      "fullUrl": "Observation/e55160ce-006b-4738-9c02-103c7d0cc5d2",
      "resource": {
        "resourceType": "Observation",
        "id": "e55160ce-006b-4738-9c02-103c7d0cc5d2",
        "meta": {
          "profile": [
            "http://hl7.org/fhir/us/core/StructureDefinition/us-core-observation-lab",
            "http://hl7.org/fhir/us/mdi/StructureDefinition/Observation-toxicology-lab-result"
          ]
        },
        "status": "final",
        "category": [
          {
            "coding": [
              {
                "system": "http://terminology.hl7.org/CodeSystem/observation-category",
                "code": "laboratory",
                "display": "Laboratory"
              }
            ]
          }
        ],
        "code": {
          "coding": [
            {
              "system": "http://loinc.org",
              "code": "11072-6",
              "display": "Despropionylfentanyl [Mass/volume] in Serum or Plasma"
            }
          ],
          "text": "Despropionylfentanyl [Mass/volume] in Serum or Plasma"
        },
        "subject": {
          "reference": "Patient/efda7dfa-5abb-41cb-b5d2-bbe520f5229d"
        },
        "effectiveDateTime": "2021-12-03",
        "valueBoolean": true,
        "specimen": {
          "reference": "Specimen/4bfefc45-3413-449b-ad9a-88514043892b"
        }
      }
    },
    {
      "fullUrl": "Observation/366f4693-13ea-4498-a5c6-8c6f380071fe",
      "resource": {
        "resourceType": "Observation",
        "id": "366f4693-13ea-4498-a5c6-8c6f380071fe",
        "meta": {
          "profile": [
            "http://hl7.org/fhir/us/core/StructureDefinition/us-core-observation-lab",
            "http://hl7.org/fhir/us/mdi/StructureDefinition/Observation-toxicology-lab-result"
          ]
        },
        "status": "final",
        "category": [
          {
            "coding": [
              {
                "system": "http://terminology.hl7.org/CodeSystem/observation-category",
                "code": "laboratory",
                "display": "Laboratory"
              }
            ]
          }
        ],
        "code": {
          "coding": [
            {
              "system": "http://loinc.org",
              "code": "74810-3",
              "display": "Acetyl fentanyl [Presence] in Urine by Confirmatory method"
            }
          ],
          "text": "Acetyl fentanyl [Presence] in Urine by Confirmatory method"
        },
        "subject": {
          "reference": "Patient/efda7dfa-5abb-41cb-b5d2-bbe520f5229d"
        },
        "effectiveDateTime": "2021-12-03",
        "valueBoolean": true,
        "specimen": {
          "reference": "Specimen/4bfefc45-3413-449b-ad9a-88514043892b"
        }
      }
    },
    {
      "fullUrl": "Observation/d03a7819-27e0-4151-8c51-8e4ea99ea96d",
      "resource": {
        "resourceType": "Observation",
        "id": "d03a7819-27e0-4151-8c51-8e4ea99ea96d",
        "meta": {
          "profile": [
            "http://hl7.org/fhir/us/core/StructureDefinition/us-core-observation-lab",
            "http://hl7.org/fhir/us/mdi/StructureDefinition/Observation-toxicology-lab-result"
          ]
        },
        "status": "final",
        "category": [
          {
            "coding": [
              {
                "system": "http://terminology.hl7.org/CodeSystem/observation-category",
                "code": "laboratory",
                "display": "Laboratory"
              }
            ]
          }
        ],
        "code": {
          "coding": [
            {
              "system": "http://loinc.org",
              "code": "11235-9",
              "display": "fentaNYL [Presence] in Urine"
            }
          ],
          "text": "fentaNYL [Presence] in Urine"
        },
        "subject": {
          "reference": "Patient/efda7dfa-5abb-41cb-b5d2-bbe520f5229d"
        },
        "effectiveDateTime": "2021-12-03",
        "valueBoolean": true,
        "specimen": {
          "reference": "Specimen/4bfefc45-3413-449b-ad9a-88514043892b"
        }
      }
    },
    {
      "fullUrl": "Observation/5746dc24-b1b7-4bd0-a7d9-89187cb21cec",
      "resource": {
        "resourceType": "Observation",
        "id": "5746dc24-b1b7-4bd0-a7d9-89187cb21cec",
        "meta": {
          "profile": [
            "http://hl7.org/fhir/us/core/StructureDefinition/us-core-observation-lab",
            "http://hl7.org/fhir/us/mdi/StructureDefinition/Observation-toxicology-lab-result"
          ]
        },
        "status": "final",
        "category": [
          {
            "coding": [
              {
                "system": "http://terminology.hl7.org/CodeSystem/observation-category",
                "code": "laboratory",
                "display": "Laboratory"
              }
            ]
          }
        ],
        "code": {
          "coding": [
            {
              "system": "http://loinc.org",
              "code": "43199-9",
              "display": "Norfentanyl [Presence] in Urine"
            }
          ],
          "text": "Norfentanyl [Presence] in Urine"
        },
        "subject": {
          "reference": "Patient/efda7dfa-5abb-41cb-b5d2-bbe520f5229d"
        },
        "effectiveDateTime": "2021-12-03",
        "valueBoolean": true,
        "specimen": {
          "reference": "Specimen/4bfefc45-3413-449b-ad9a-88514043892b"
        }
      }
    },
    {
      "fullUrl": "Observation/93b725de-84b7-4f5c-818d-856a8143bacb",
      "resource": {
        "resourceType": "Observation",
        "id": "93b725de-84b7-4f5c-818d-856a8143bacb",
        "meta": {
          "profile": [
            "http://hl7.org/fhir/us/core/StructureDefinition/us-core-observation-lab",
            "http://hl7.org/fhir/us/mdi/StructureDefinition/Observation-toxicology-lab-result"
          ]
        },
        "status": "final",
        "category": [
          {
            "coding": [
              {
                "system": "http://terminology.hl7.org/CodeSystem/observation-category",
                "code": "laboratory",
                "display": "Laboratory"
              }
            ]
          }
        ],
        "code": {
          "coding": [
            {
              "system": "http://loinc.org",
              "code": "12327-3",
              "display": "Ketamine [Presence] in Urine"
            }
          ],
          "text": "Ketamine [Presence] in Urine"
        },
        "subject": {
          "reference": "Patient/efda7dfa-5abb-41cb-b5d2-bbe520f5229d"
        },
        "effectiveDateTime": "2021-12-03",
        "valueBoolean": true,
        "specimen": {
          "reference": "Specimen/4bfefc45-3413-449b-ad9a-88514043892b"
        }
      }
    },
    {
      "fullUrl": "Observation/a7cb15c7-7365-41cb-982e-eb4858081ad1",
      "resource": {
        "resourceType": "Observation",
        "id": "a7cb15c7-7365-41cb-982e-eb4858081ad1",
        "meta": {
          "profile": [
            "http://hl7.org/fhir/us/core/StructureDefinition/us-core-observation-lab",
            "http://hl7.org/fhir/us/mdi/StructureDefinition/Observation-toxicology-lab-result"
          ]
        },
        "status": "final",
        "category": [
          {
            "coding": [
              {
                "system": "http://terminology.hl7.org/CodeSystem/observation-category",
                "code": "laboratory",
                "display": "Laboratory"
              }
            ]
          }
        ],
        "code": {
          "coding": [
            {
              "system": "http://loinc.org",
              "code": "12465-1",
              "display": "Ethanol [Mass/volume] in Vitreous fluid"
            }
          ],
          "text": "Ethanol [Mass/volume] in Vitreous fluid"
        },
        "subject": {
          "reference": "Patient/efda7dfa-5abb-41cb-b5d2-bbe520f5229d"
        },
        "effectiveDateTime": "2021-12-03",
        "valueQuantity": {
          "value": 0.133,
          "unit": "g/dL",
          "system": "http://unitsofmeasure.org"
        },
        "specimen": {
          "reference": "Specimen/2213a7db-8065-4d7d-9bd0-63d5d3535c38"
        }
      }
    }
  ]
}