{
  "resourceType": "Bundle",
  "meta": {
    "profile": [
      "http://hl7.org/fhir/us/mdi/StructureDefinition/Bundle-message-tox-to-mdi"
    ]
  },
  "identifier": {
    "system": "urn:ietf:rfc:3986",
    "value": "urn:uuid:683dde44f7664b03a20b6324f23986d9"
  },
  "type": "message",
  "entry": [
    {
      "fullUrl": "MessageHeader/7787064f-1df6-4ff9-91a9-1d73ad2e642a",
      "resource": {
        "resourceType": "MessageHeader",
        "id": "7787064f-1df6-4ff9-91a9-1d73ad2e642a",
        "meta": {
          "profile": [
            "http://hl7.org/fhir/us/mdi/StructureDefinition/MessageHeader-toxicology-to-mdi"
          ]
        },
        "eventCoding": {
          "system": "http://hl7.org/fhir/us/mdi/CodeSystem/CodeSystem-mdi-codes",
          "code": "tox-result-report",
          "display": "Toxicology Lab Results"
        },
        "source": {
          "name": "University of Florida Pathology Labs, Forensic Toxicology Laboratory",
          "software": "MS Access",
          "version": "1.2.3",
          "contact": {
            "system": "phone",
            "value": "+1 (555) 123 4567"
          },
          "endpoint": "http://uf.org/access/endpoint/1"
        },
        "focus": [
          {
            "reference": "DiagnosticReport/9a4bb1a8-8714-4b15-9885-ec15da80165b"
          }
        ]
      }
    },
    {
      "fullUrl": "DiagnosticReport/9a4bb1a8-8714-4b15-9885-ec15da80165b",
      "resource": {
        "resourceType": "DiagnosticReport",
        "id": "9a4bb1a8-8714-4b15-9885-ec15da80165b",
        "meta": {
          "profile": [
            "http://hl7.org/fhir/us/core/StructureDefinition/us-core-diagnosticreport-lab",
            "http://hl7.org/fhir/us/mdi/StructureDefinition/DiagnosticReport-toxicology-to-mdi"
          ]
        },
        "identifier": [
          {
            "type": {
              "coding": [
                {
                  "system": "http://hl7.org/fhir/us/mdi/CodeSystem/CodeSystem-mdi-codes",
                  "code": "tox-lab-case-number",
                  "display": "Toxicology Laboratory Case Number"
                }
              ]
            },
            "system": "http://uf-path-labs.org/fhir/lab-cases",
            "value": "R21-01578",
            "assigner": {
              "reference": "Organization/818f4f28-bed4-46f6-8728-874fdf46aafb"
            }
          }
        ],
        "status": "final",
        "category": [
          {
            "coding": [
              {
                "system": "http://terminology.hl7.org/CodeSystem/v2-0074",
                "code": "LAB",
                "display": "Laboratory"
              }
            ]
          }
        ],
        "code": {
          "coding": [
            {
              "system": "http://loinc.org",
              "code": "81273-5",
              "display": "fentaNYL and Norfentanyl panel - Specimen"
            }
          ]
        },
        "subject": {
          "reference": "Patient/56e9fd23-2516-4a66-88c8-891d64297dd8",
          "display": "FREEMAN, Alice"
        },
        "effectiveDateTime": "2021-12-03T11:00:00Z",
        "issued": "2022-01-05T11:00:00+00:00",
        "performer": [
          {
            "reference": "Practitioner/c3aa4693-61ca-44c0-8c91-76ad5cfa482b"
          }
        ],
        "specimen": [
          {
            "reference": "Specimen/3f56fb48-d7c1-4b61-80fb-18badc824c80",
            "display": "Whole blood sample (specimen)"
          },
          {
            "reference": "Specimen/d0ca2773-2c48-4417-a233-3995d5d0193d",
            "display": "Urine specimen (specimen)"
          },
          {
            "reference": "Specimen/23a58e95-4448-4519-bcef-7da3812a54b8",
            "display": "Vitreous humor sample (specimen)"
          },
          {
            "reference": "Specimen/8a5580a2-0565-4466-8c1f-6699c0ebba36",
            "display": "Bile specimen (specimen)"
          },
          {
            "reference": "Specimen/885df13e-045f-47d7-a405-19658dbbdfe6",
            "display": "Tissue specimen from liver (specimen)"
          },
          {
            "reference": "Specimen/f21c5a94-cbd5-4c23-8f90-f915064af407",
            "display": "Specimen from stomach (specimen)"
          }
        ],
        "result": [
          {
            "reference": "Observation/39383556-cbff-4723-9790-ca54a9e7ffb1",
            "display": "Ethanol [Mass/volume] in Blood by Gas chromatography"
          },
          {
            "reference": "Observation/33f1e118-4561-4716-abd9-c2bcbe1afe1d",
            "display": "Despropionylfentanyl [Mass/volume] in Serum or Plasma"
          },
          {
            "reference": "Observation/13597f1b-9410-4f70-9048-3d82af18cfb9",
            "display": "Acetyl norfentanyl [Mass/volume] in Serum, Plasma or Blood by Confirmatory method"
          },
          {
            "reference": "Observation/4b272aad-2c9a-47e4-b8fb-e3992276925e",
            "display": "fentaNYL [Mass/volume] in Blood by Confirmatory method"
          },
          {
            "reference": "Observation/031abc6e-31a9-4ccf-9110-ec30b08a73f4",
            "display": "Ethanol [Mass/volume] in Urine by Confirmatory method"
          },
          {
            "reference": "Observation/2d9aefa7-2730-4e5b-95f3-7cf9bf2795e7",
            "display": "Despropionylfentanyl [Mass/volume] in Serum or Plasma"
          },
          {
            "reference": "Observation/2002f7b3-b24f-40c7-95ec-2623f9287956",
            "display": "Acetyl fentanyl [Presence] in Urine by Confirmatory method"
          },
          {
            "reference": "Observation/5af94df8-07c8-4486-868b-3bf36b69ad65",
            "display": "fentaNYL [Presence] in Urine"
          },
          {
            "reference": "Observation/9fce8ceb-e68e-497d-8db7-9b9cfb777694",
            "display": "Norfentanyl [Presence] in Urine"
          },
          {
            "reference": "Observation/bc48f008-65b3-4811-adc2-d20c4783b98d",
            "display": "Ketamine [Presence] in Urine"
          },
          {
            "reference": "Observation/5982e5b9-ee89-4f6f-b9d9-ba1d0e362717",
            "display": "Ethanol [Mass/volume] in Vitreous fluid"
          }
        ]
      }
    },
    {
      "fullUrl": "Patient/56e9fd23-2516-4a66-88c8-891d64297dd8",
      "resource": {
        "resourceType": "Patient",
        "id": "56e9fd23-2516-4a66-88c8-891d64297dd8",
        "meta": {
          "profile": [
            "http://hl7.org/fhir/us/core/StructureDefinition/us-core-patient"
          ]
        },
        "extension": [
          {
            "extension": [
              {
                "url": "ombCategory",
                "valueCoding": {
                  "system": "urn:oid:2.16.840.1.113883.6.238",
                  "code": "2106-3",
                  "display": "White"
                }
              },
              {
                "url": "detailed",
                "valueCoding": {
                  "system": "urn:oid:2.16.840.1.113883.6.238",
                  "code": "1010-8",
                  "display": "Apache"
                }
              },
              {
                "url": "text",
                "valueString": "Apache"
              }
            ],
            "url": "http://hl7.org/fhir/us/core/StructureDefinition/us-core-race"
          },
          {
            "extension": [
              {
                "url": "ombCategory",
                "valueCoding": {
                  "system": "urn:oid:2.16.840.1.113883.6.238",
                  "code": "2186-5",
                  "display": "Not Hispanic or Latino"
                }
              },
              {
                "url": "detailed",
                "valueCoding": {
                  "system": "urn:oid:2.16.840.1.113883.6.238",
                  "code": "2162-6",
                  "display": "Central American Indian"
                }
              },
              {
                "url": "text",
                "valueString": "Not Hispanic or Latino"
              }
            ],
            "url": "http://hl7.org/fhir/us/core/StructureDefinition/us-core-ethnicity"
          },
          {
            "url": "http://hl7.org/fhir/us/core/StructureDefinition/us-core-birthsex",
            "valueCode": "F"
          }
        ],
        "identifier": [
          {
            "use": "usual",
            "type": {
              "coding": [
                {
                  "system": "http://terminology.hl7.org/CodeSystem/v2-0203",
                  "code": "SS",
                  "display": "Social Security number"
                }
              ],
              "text": "Social Security number"
            },
            "system": "http://hospital.smarthealthit.org",
            "value": "987054321"
          }
        ],
        "name": [
          {
            "family": "FREEMAN",
            "given": [
              "Alice",
              "J"
            ]
          }
        ],
        "telecom": [
          {
            "system": "phone",
            "value": "212-867-5309",
            "use": "home"
          },
          {
            "system": "phone",
            "value": "212-867-5310",
            "use": "home"
          },
          {
            "system": "email",
            "value": "mywork@gtri.org",
            "use": "work"
          }
        ],
        "gender": "female",
        "birthDate": "1965-05-02",
        "deceasedDateTime": "2014-03-02",
        "address": [
          {
            "use": "home",
            "state": "TX",
            "postalCode": "77018",
            "country": "USA"
          }
        ]
      }
    },
    {
      "fullUrl": "Practitioner/c3aa4693-61ca-44c0-8c91-76ad5cfa482b",
      "resource": {
        "resourceType": "Practitioner",
        "id": "c3aa4693-61ca-44c0-8c91-76ad5cfa482b",
        "meta": {
          "profile": [
            "http://hl7.org/fhir/us/core/StructureDefinition/us-core-practitioner"
          ]
        },
        "identifier": [
          {
            "system": "http://hl7.org/fhir/sid/us-npi",
            "value": "555667777"
          }
        ],
        "name": [
          {
            "use": "official",
            "family": "Goldberger",
            "given": [
              "Bruce"
            ],
            "prefix": [
              "Dr"
            ]
          }
        ]
      }
    },
    {
      "fullUrl": "Organization/818f4f28-bed4-46f6-8728-874fdf46aafb",
      "resource": {
        "resourceType": "Organization",
        "id": "818f4f28-bed4-46f6-8728-874fdf46aafb",
        "meta": {
          "profile": [
            "http://hl7.org/fhir/us/core/StructureDefinition/us-core-organization"
          ]
        },
        "identifier": [
          {
            "system": "http://hl7.org/fhir/sid/us-npi",
            "value": "111223333"
          }
        ],
        "active": true,
        "type": [
          {
            "coding": [
              {
                "system": "http://terminology.hl7.org/CodeSystem/organization-type",
                "code": "prov",
                "display": "Healthcare Provider"
              }
            ]
          }
        ],
        "name": "UF Health Pathology Labs, Forensic Toxicology Laboratory",
        "telecom": [
          {
            "system": "phone",
            "value": "(352) 265-9900",
            "use": "work"
          }
        ],
        "address": [
          {
            "line": [
              "4800 SW 35th Drive"
            ],
            "city": "Gainesville",
            "state": "FL",
            "postalCode": "32608",
            "country": "USA"
          }
        ]
      }
    },
    {
      "fullUrl": "Specimen/3f56fb48-d7c1-4b61-80fb-18badc824c80",
      "resource": {
        "resourceType": "Specimen",
        "id": "3f56fb48-d7c1-4b61-80fb-18badc824c80",
        "meta": {
          "profile": [
            "http://hl7.org/fhir/us/mdi/StructureDefinition/Specimen-toxicology-lab"
          ]
        },
        "accessionIdentifier": {
          "system": "http://lab.acme.org/specimens/2021",
          "value": "X352356"
        },
        "status": "available",
        "type": {
          "coding": [
            {
              "system": "http://snomed.info/sct",
              "code": "258580003",
              "display": "Whole blood sample (specimen)"
            }
          ],
          "text": "Whole blood sample (specimen)"
        },
        "subject": {
          "reference": "Patient/56e9fd23-2516-4a66-88c8-891d64297dd8"
        },
        "receivedTime": "2021-12-03T16:00:00Z",
        "collection": {
          "collectedDateTime": "2021-12-03T11:00:00Z",
          "bodySite": {
            "coding": [
              {
                "system": "http://snomed.info/sct",
                "code": "83419000",
                "display": "Femoral vein structure (body structure)"
              }
            ]
          }
        },
        "container": [
          {
            "description": "10mL GT tube",
            "type": {
              "coding": [
                {
                  "system": "http://snomed.info/sct",
                  "code": "702287009",
                  "display": "Non - evacuated blood collection tube, potassium oxalate / sodium fluoride(physical object)"
                }
              ],
              "text": "GT tube"
            },
            "specimenQuantity": {
              "value": 20,
              "unit": "ml"
            }
          }
        ]
      }
    },
    {
      "fullUrl": "Specimen/d0ca2773-2c48-4417-a233-3995d5d0193d",
      "resource": {
        "resourceType": "Specimen",
        "id": "d0ca2773-2c48-4417-a233-3995d5d0193d",
        "meta": {
          "profile": [
            "http://hl7.org/fhir/us/mdi/StructureDefinition/Specimen-toxicology-lab"
          ]
        },
        "accessionIdentifier": {
          "system": "http://lab.acme.org/specimens/2021",
          "value": "ZZZ352356"
        },
        "status": "available",
        "type": {
          "coding": [
            {
              "system": "http://snomed.info/sct",
              "code": "122575003",
              "display": "Urine specimen (specimen)"
            }
          ],
          "text": "Urine specimen (specimen)"
        },
        "subject": {
          "reference": "Patient/56e9fd23-2516-4a66-88c8-891d64297dd8"
        },
        "receivedTime": "2021-12-03T16:00:00Z",
        "collection": {
          "collectedDateTime": "2021-12-03T11:00:00Z",
          "bodySite": {
            "coding": [
              {
                "system": "http://snomed.info/sct",
                "code": "83419000",
                "display": "Femoral vein structure (body structure)"
              }
            ]
          }
        },
        "container": [
          {
            "description": "10mL RT tube",
            "specimenQuantity": {
              "value": 5,
              "unit": "ml"
            }
          }
        ]
      }
    },
    {
      "fullUrl": "Specimen/23a58e95-4448-4519-bcef-7da3812a54b8",
      "resource": {
        "resourceType": "Specimen",
        "id": "23a58e95-4448-4519-bcef-7da3812a54b8",
        "meta": {
          "profile": [
            "http://hl7.org/fhir/us/mdi/StructureDefinition/Specimen-toxicology-lab"
          ]
        },
        "accessionIdentifier": {
          "system": "http://lab.acme.org/specimens/2021",
          "value": "XXX352356"
        },
        "status": "available",
        "type": {
          "coding": [
            {
              "system": "http://snomed.info/sct",
              "code": "258438000",
              "display": "Vitreous humor sample (specimen)"
            }
          ],
          "text": "Vitreous humor sample (specimen)"
        },
        "subject": {
          "reference": "Patient/56e9fd23-2516-4a66-88c8-891d64297dd8"
        },
        "receivedTime": "2021-12-03T16:00:00Z",
        "collection": {
          "collectedDateTime": "2021-12-03T11:00:00Z",
          "bodySite": {
            "coding": [
              {
                "system": "http://snomed.info/sct",
                "code": "83419000",
                "display": "Femoral vein structure (body structure)"
              }
            ]
          }
        },
        "container": [
          {
            "description": "10mL RT tube",
            "specimenQuantity": {
              "value": 3,
              "unit": "ml"
            }
          }
        ]
      }
    },
    {
      "fullUrl": "Specimen/8a5580a2-0565-4466-8c1f-6699c0ebba36",
      "resource": {
        "resourceType": "Specimen",
        "id": "8a5580a2-0565-4466-8c1f-6699c0ebba36",
        "meta": {
          "profile": [
            "http://hl7.org/fhir/us/mdi/StructureDefinition/Specimen-toxicology-lab"
          ]
        },
        "accessionIdentifier": {
          "system": "http://lab.acme.org/specimens/2021",
          "value": "OO352356"
        },
        "status": "available",
        "type": {
          "coding": [
            {
              "system": "http://snomed.info/sct",
              "code": "119341000",
              "display": "Bile specimen (specimen)"
            }
          ],
          "text": "Bile specimen (specimen)"
        },
        "subject": {
          "reference": "Patient/56e9fd23-2516-4a66-88c8-891d64297dd8"
        },
        "receivedTime": "2021-12-03T16:00:00Z",
        "container": [
          {
            "description": "3mL sample of bile specimen",
            "specimenQuantity": {
              "value": 3,
              "unit": "ml"
            }
          }
        ]
      }
    },
    {
      "fullUrl": "Specimen/885df13e-045f-47d7-a405-19658dbbdfe6",
      "resource": {
        "resourceType": "Specimen",
        "id": "885df13e-045f-47d7-a405-19658dbbdfe6",
        "meta": {
          "profile": [
            "http://hl7.org/fhir/us/mdi/StructureDefinition/Specimen-toxicology-lab"
          ]
        },
        "accessionIdentifier": {
          "system": "http://lab.acme.org/specimens/2021",
          "value": "DD352356"
        },
        "status": "available",
        "type": {
          "coding": [
            {
              "system": "http://snomed.info/sct",
              "code": "119379005",
              "display": "Tissue specimen from liver (specimen)"
            }
          ],
          "text": "Tissue specimen from liver (specimen)"
        },
        "subject": {
          "reference": "Patient/56e9fd23-2516-4a66-88c8-891d64297dd8"
        },
        "receivedTime": "2021-12-03T16:00:00Z",
        "container": [
          {
            "description": "5mL sample of liver specimen",
            "specimenQuantity": {
              "value": 5,
              "unit": "ml"
            }
          }
        ]
      }
    },
    {
      "fullUrl": "Specimen/f21c5a94-cbd5-4c23-8f90-f915064af407",
      "resource": {
        "resourceType": "Specimen",
        "id": "f21c5a94-cbd5-4c23-8f90-f915064af407",
        "meta": {
          "profile": [
            "http://hl7.org/fhir/us/mdi/StructureDefinition/Specimen-toxicology-lab"
          ]
        },
        "accessionIdentifier": {
          "system": "http://lab.acme.org/specimens/2021",
          "value": "MM352356"
        },
        "status": "available",
        "type": {
          "coding": [
            {
              "system": "http://snomed.info/sct",
              "code": "258580003",
              "display": "Specimen from stomach (specimen)"
            }
          ],
          "text": "Specimen from stomach (specimen)"
        },
        "subject": {
          "reference": "Patient/56e9fd23-2516-4a66-88c8-891d64297dd8"
        },
        "receivedTime": "2021-12-03T16:00:00Z",
        "collection": {
          "collectedDateTime": "2021-12-03T11:00:00Z",
          "bodySite": {
            "coding": [
              {
                "system": "http://snomed.info/sct",
                "code": "83419000",
                "display": "Femoral vein structure (body structure)"
              }
            ]
          }
        },
        "container": [
          {
            "description": "60mL sample of stomach contents specimen",
            "specimenQuantity": {
              "value": 60,
              "unit": "ml"
            }
          }
        ]
      }
    },
    {
      "fullUrl": "Observation/39383556-cbff-4723-9790-ca54a9e7ffb1",
      "resource": {
        "resourceType": "Observation",
        "id": "39383556-cbff-4723-9790-ca54a9e7ffb1",
        "meta": {
          "profile": [
            "http://hl7.org/fhir/us/core/StructureDefinition/us-core-observation-lab",
            "http://hl7.org/fhir/us/mdi/StructureDefinition/Observation-toxicology-lab-result"
          ]
        },
        "status": "final",
        "category": [
          {
            "coding": [
              {
                "system": "http://terminology.hl7.org/CodeSystem/observation-category",
                "code": "laboratory",
                "display": "Laboratory"
              }
            ]
          }
        ],
        "code": {
          "coding": [
            {
              "system": "http://loinc.org",
              "code": "56478-1",
              "display": "Ethanol [Mass/volume] in Blood by Gas chromatography"
            }
          ],
          "text": "Ethanol [Mass/volume] in Blood by Gas chromatography"
        },
        "subject": {
          "reference": "Patient/56e9fd23-2516-4a66-88c8-891d64297dd8"
        },
        "effectiveDateTime": "2021-12-03",
        "valueQuantity": {
          "value": 0.145,
          "unit": "g/dL",
          "system": "http://unitsofmeasure.org"
        },
        "specimen": {
          "reference": "Specimen/3f56fb48-d7c1-4b61-80fb-18badc824c80"
        }
      }
    },
    {
      "fullUrl": "Observation/33f1e118-4561-4716-abd9-c2bcbe1afe1d",
      "resource": {
        "resourceType": "Observation",
        "id": "33f1e118-4561-4716-abd9-c2bcbe1afe1d",
        "meta": {
          "profile": [
            "http://hl7.org/fhir/us/core/StructureDefinition/us-core-observation-lab",
            "http://hl7.org/fhir/us/mdi/StructureDefinition/Observation-toxicology-lab-result"
          ]
        },
        "status": "final",
        "category": [
          {
            "coding": [
              {
                "system": "http://terminology.hl7.org/CodeSystem/observation-category",
                "code": "laboratory",
                "display": "Laboratory"
              }
            ]
          }
        ],
        "code": {
          "coding": [
            {
              "system": "http://loinc.org",
              "code": "11072-6",
              "display": "Despropionylfentanyl [Mass/volume] in Serum or Plasma"
            }
          ],
          "text": "Despropionylfentanyl [Mass/volume] in Serum or Plasma"
        },
        "subject": {
          "reference": "Patient/56e9fd23-2516-4a66-88c8-891d64297dd8"
        },
        "effectiveDateTime": "2021-12-03",
        "valueBoolean": true,
        "specimen": {
          "reference": "Specimen/3f56fb48-d7c1-4b61-80fb-18badc824c80"
        }
      }
    },
    {
      "fullUrl": "Observation/13597f1b-9410-4f70-9048-3d82af18cfb9",
      "resource": {
        "resourceType": "Observation",
        "id": "13597f1b-9410-4f70-9048-3d82af18cfb9",
        "meta": {
          "profile": [
            "http://hl7.org/fhir/us/core/StructureDefinition/us-core-observation-lab",
            "http://hl7.org/fhir/us/mdi/StructureDefinition/Observation-toxicology-lab-result"
          ]
        },
        "status": "final",
        "category": [
          {
            "coding": [
              {
                "system": "http://terminology.hl7.org/CodeSystem/observation-category",
                "code": "laboratory",
                "display": "Laboratory"
              }
            ]
          }
        ],
        "code": {
          "coding": [
            {
              "system": "http://loinc.org",
              "code": "86223-5",
              "display": "Acetyl norfentanyl [Mass/volume] in Serum, Plasma or Blood by Confirmatory method"
            }
          ],
          "text": "Acetyl norfentanyl [Mass/volume] in Serum, Plasma or Blood by Confirmatory method"
        },
        "subject": {
          "reference": "Patient/56e9fd23-2516-4a66-88c8-891d64297dd8"
        },
        "effectiveDateTime": "2021-12-03",
        "valueQuantity": {
          "value": 2,
          "unit": "ng/mL",
          "system": "http://unitsofmeasure.org"
        },
        "specimen": {
          "reference": "Specimen/3f56fb48-d7c1-4b61-80fb-18badc824c80"
        }
      }
    },
    {
      "fullUrl": "Observation/4b272aad-2c9a-47e4-b8fb-e3992276925e",
      "resource": {
        "resourceType": "Observation",
        "id": "4b272aad-2c9a-47e4-b8fb-e3992276925e",
        "meta": {
          "profile": [
            "http://hl7.org/fhir/us/core/StructureDefinition/us-core-observation-lab",
            "http://hl7.org/fhir/us/mdi/StructureDefinition/Observation-toxicology-lab-result"
          ]
        },
        "status": "final",
        "category": [
          {
            "coding": [
              {
                "system": "http://terminology.hl7.org/CodeSystem/observation-category",
                "code": "laboratory",
                "display": "Laboratory"
              }
            ]
          }
        ],
        "code": {
          "coding": [
            {
              "system": "http://loinc.org",
              "code": "73938-3",
              "display": "fentaNYL [Mass/volume] in Blood by Confirmatory method"
            }
          ],
          "text": "fentaNYL [Mass/volume] in Blood by Confirmatory method"
        },
        "subject": {
          "reference": "Patient/56e9fd23-2516-4a66-88c8-891d64297dd8"
        },
        "effectiveDateTime": "2021-12-03",
        "valueQuantity": {
          "value": 23,
          "unit": "ng/mL",
          "system": "http://unitsofmeasure.org"
        },
        "specimen": {
          "reference": "Specimen/3f56fb48-d7c1-4b61-80fb-18badc824c80"
        }
      }
    },
    {
      "fullUrl": "Observation/031abc6e-31a9-4ccf-9110-ec30b08a73f4",
      "resource": {
        "resourceType": "Observation",
        "id": "031abc6e-31a9-4ccf-9110-ec30b08a73f4",
        "meta": {
          "profile": [
            "http://hl7.org/fhir/us/core/StructureDefinition/us-core-observation-lab",
            "http://hl7.org/fhir/us/mdi/StructureDefinition/Observation-toxicology-lab-result"
          ]
        },
        "status": "final",
        "category": [
          {
            "coding": [
              {
                "system": "http://terminology.hl7.org/CodeSystem/observation-category",
                "code": "laboratory",
                "display": "Laboratory"
              }
            ]
          }
        ],
        "code": {
          "coding": [
            {
              "system": "http://loinc.org",
              "code": "46983-3",
              "display": "Ethanol [Mass/volume] in Urine by Confirmatory method"
            }
          ],
          "text": "Ethanol [Mass/volume] in Urine by Confirmatory method"
        },
        "subject": {
          "reference": "Patient/56e9fd23-2516-4a66-88c8-891d64297dd8"
        },
        "effectiveDateTime": "2021-12-03",
        "valueQuantity": {
          "value": 0.16,
          "unit": "g/dL",
          "system": "http://unitsofmeasure.org"
        },
        "specimen": {
          "reference": "Specimen/d0ca2773-2c48-4417-a233-3995d5d0193d"
        }
      }
    },
    {
      "fullUrl": "Observation/2d9aefa7-2730-4e5b-95f3-7cf9bf2795e7",
      "resource": {
        "resourceType": "Observation",
        "id": "2d9aefa7-2730-4e5b-95f3-7cf9bf2795e7",
        "meta": {
          "profile": [
            "http://hl7.org/fhir/us/core/StructureDefinition/us-core-observation-lab",
            "http://hl7.org/fhir/us/mdi/StructureDefinition/Observation-toxicology-lab-result"
          ]
        },
        "status": "final",
        "category": [
          {
            "coding": [
              {
                "system": "http://terminology.hl7.org/CodeSystem/observation-category",
                "code": "laboratory",
                "display": "Laboratory"
              }
            ]
          }
        ],
        "code": {
          "coding": [
            {
              "system": "http://loinc.org",
              "code": "11072-6",
              "display": "Despropionylfentanyl [Mass/volume] in Serum or Plasma"
            }
          ],
          "text": "Despropionylfentanyl [Mass/volume] in Serum or Plasma"
        },
        "subject": {
          "reference": "Patient/56e9fd23-2516-4a66-88c8-891d64297dd8"
        },
        "effectiveDateTime": "2021-12-03",
        "valueBoolean": true,
        "specimen": {
          "reference": "Specimen/d0ca2773-2c48-4417-a233-3995d5d0193d"
        }
      }
    },
    {
      "fullUrl": "Observation/2002f7b3-b24f-40c7-95ec-2623f9287956",
      "resource": {
        "resourceType": "Observation",
        "id": "2002f7b3-b24f-40c7-95ec-2623f9287956",
        "meta": {
          "profile": [
            "http://hl7.org/fhir/us/core/StructureDefinition/us-core-observation-lab",
            "http://hl7.org/fhir/us/mdi/StructureDefinition/Observation-toxicology-lab-result"
          ]
        },
        "status": "final",
        "category": [
          {
            "coding": [
              {
                "system": "http://terminology.hl7.org/CodeSystem/observation-category",
                "code": "laboratory",
                "display": "Laboratory"
              }
            ]
          }
        ],
        "code": {
          "coding": [
            {
              "system": "http://loinc.org",
              "code": "74810-3",
              "display": "Acetyl fentanyl [Presence] in Urine by Confirmatory method"
            }
          ],
          "text": "Acetyl fentanyl [Presence] in Urine by Confirmatory method"
        },
        "subject": {
          "reference": "Patient/56e9fd23-2516-4a66-88c8-891d64297dd8"
        },
        "effectiveDateTime": "2021-12-03",
        "valueBoolean": true,
        "specimen": {
          "reference": "Specimen/d0ca2773-2c48-4417-a233-3995d5d0193d"
        }
      }
    },
    {
      "fullUrl": "Observation/5af94df8-07c8-4486-868b-3bf36b69ad65",
      "resource": {
        "resourceType": "Observation",
        "id": "5af94df8-07c8-4486-868b-3bf36b69ad65",
        "meta": {
          "profile": [
            "http://hl7.org/fhir/us/core/StructureDefinition/us-core-observation-lab",
            "http://hl7.org/fhir/us/mdi/StructureDefinition/Observation-toxicology-lab-result"
          ]
        },
        "status": "final",
        "category": [
          {
            "coding": [
              {
                "system": "http://terminology.hl7.org/CodeSystem/observation-category",
                "code": "laboratory",
                "display": "Laboratory"
              }
            ]
          }
        ],
        "code": {
          "coding": [
            {
              "system": "http://loinc.org",
              "code": "11235-9",
              "display": "fentaNYL [Presence] in Urine"
            }
          ],
          "text": "fentaNYL [Presence] in Urine"
        },
        "subject": {
          "reference": "Patient/56e9fd23-2516-4a66-88c8-891d64297dd8"
        },
        "effectiveDateTime": "2021-12-03",
        "valueBoolean": true,
        "specimen": {
          "reference": "Specimen/d0ca2773-2c48-4417-a233-3995d5d0193d"
        }
      }
    },
    {
      "fullUrl": "Observation/9fce8ceb-e68e-497d-8db7-9b9cfb777694",
      "resource": {
        "resourceType": "Observation",
        "id": "9fce8ceb-e68e-497d-8db7-9b9cfb777694",
        "meta": {
          "profile": [
            "http://hl7.org/fhir/us/core/StructureDefinition/us-core-observation-lab",
            "http://hl7.org/fhir/us/mdi/StructureDefinition/Observation-toxicology-lab-result"
          ]
        },
        "status": "final",
        "category": [
          {
            "coding": [
              {
                "system": "http://terminology.hl7.org/CodeSystem/observation-category",
                "code": "laboratory",
                "display": "Laboratory"
              }
            ]
          }
        ],
        "code": {
          "coding": [
            {
              "system": "http://loinc.org",
              "code": "43199-9",
              "display": "Norfentanyl [Presence] in Urine"
            }
          ],
          "text": "Norfentanyl [Presence] in Urine"
        },
        "subject": {
          "reference": "Patient/56e9fd23-2516-4a66-88c8-891d64297dd8"
        },
        "effectiveDateTime": "2021-12-03",
        "valueBoolean": true,
        "specimen": {
          "reference": "Specimen/d0ca2773-2c48-4417-a233-3995d5d0193d"
        }
      }
    },
    {
      "fullUrl": "Observation/bc48f008-65b3-4811-adc2-d20c4783b98d",
      "resource": {
        "resourceType": "Observation",
        "id": "bc48f008-65b3-4811-adc2-d20c4783b98d",
        "meta": {
          "profile": [
            "http://hl7.org/fhir/us/core/StructureDefinition/us-core-observation-lab",
            "http://hl7.org/fhir/us/mdi/StructureDefinition/Observation-toxicology-lab-result"
          ]
        },
        "status": "final",
        "category": [
          {
            "coding": [
              {
                "system": "http://terminology.hl7.org/CodeSystem/observation-category",
                "code": "laboratory",
                "display": "Laboratory"
              }
            ]
          }
        ],
        "code": {
          "coding": [
            {
              "system": "http://loinc.org",
              "code": "12327-3",
              "display": "Ketamine [Presence] in Urine"
            }
          ],
          "text": "Ketamine [Presence] in Urine"
        },
        "subject": {
          "reference": "Patient/56e9fd23-2516-4a66-88c8-891d64297dd8"
        },
        "effectiveDateTime": "2021-12-03",
        "valueBoolean": true,
        "specimen": {
          "reference": "Specimen/d0ca2773-2c48-4417-a233-3995d5d0193d"
        }
      }
    },
    {
      "fullUrl": "Observation/5982e5b9-ee89-4f6f-b9d9-ba1d0e362717",
      "resource": {
        "resourceType": "Observation",
        "id": "5982e5b9-ee89-4f6f-b9d9-ba1d0e362717",
        "meta": {
          "profile": [
            "http://hl7.org/fhir/us/core/StructureDefinition/us-core-observation-lab",
            "http://hl7.org/fhir/us/mdi/StructureDefinition/Observation-toxicology-lab-result"
          ]
        },
        "status": "final",
        "category": [
          {
            "coding": [
              {
                "system": "http://terminology.hl7.org/CodeSystem/observation-category",
                "code": "laboratory",
                "display": "Laboratory"
              }
            ]
          }
        ],
        "code": {
          "coding": [
            {
              "system": "http://loinc.org",
              "code": "12465-1",
              "display": "Ethanol [Mass/volume] in Vitreous fluid"
            }
          ],
          "text": "Ethanol [Mass/volume] in Vitreous fluid"
        },
        "subject": {
          "reference": "Patient/56e9fd23-2516-4a66-88c8-891d64297dd8"
        },
        "effectiveDateTime": "2021-12-03",
        "valueQuantity": {
          "value": 0.133,
          "unit": "g/dL",
          "system": "http://unitsofmeasure.org"
        },
        "specimen": {
          "reference": "Specimen/23a58e95-4448-4519-bcef-7da3812a54b8"
        }
      }
    }
  ]
}