{
  "resourceType": "Bundle",
  "meta": {
    "profile": [
      "http://hl7.org/fhir/us/mdi/StructureDefinition/Bundle-message-tox-to-mdi"
    ]
  },
  "identifier": {
    "system": "urn:ietf:rfc:3986",
    "value": "urn:uuid:683dde44f7664b03a20b6324f23986d9"
  },
  "type": "message",
  "entry": [
    {
      "fullUrl": "MessageHeader/03d0d72b-9ab7-4690-a40a-fadf5894c85e",
      "resource": {
        "resourceType": "MessageHeader",
        "id": "03d0d72b-9ab7-4690-a40a-fadf5894c85e",
        "meta": {
          "profile": [
            "http://hl7.org/fhir/us/mdi/StructureDefinition/MessageHeader-toxicology-to-mdi"
          ]
        },
        "eventCoding": {
          "system": "http://hl7.org/fhir/us/mdi/CodeSystem/CodeSystem-mdi-codes",
          "code": "tox-result-report",
          "display": "Toxicology Lab Results"
        },
        "source": {
          "name": "University of Florida Pathology Labs, Forensic Toxicology Laboratory",
          "software": "MS Access",
          "version": "1.2.3",
          "contact": {
            "system": "phone",
            "value": "+1 (555) 123 4567"
          },
          "endpoint": "http://uf.org/access/endpoint/1"
        },
        "focus": [
          {
            "reference": "DiagnosticReport/56e48def-6c61-4d60-8805-faf7561a4d52"
          }
        ]
      }
    },
    {
      "fullUrl": "DiagnosticReport/56e48def-6c61-4d60-8805-faf7561a4d52",
      "resource": {
        "resourceType": "DiagnosticReport",
        "id": "56e48def-6c61-4d60-8805-faf7561a4d52",
        "meta": {
          "profile": [
            "http://hl7.org/fhir/us/mdi/StructureDefinition/DiagnosticReport-toxicology-to-mdi"
          ]
        },
        "extension": [
          {
            "url": "http://hl7.org/fhir/us/mdi/StructureDefinition/Extension-tracking-number",
            "valueIdentifier": {
              "type": {
                "coding": [
                  {
                    "system": "http://hl7.org/fhir/us/mdi/CodeSystem/CodeSystem-mdi-codes",
                    "code": "tox-lab-case-number",
                    "display": "Toxicology Laboratory Case Number"
                  }
                ]
              },
              "system": "http://uf-path-labs.org/fhir/lab-cases",
              "value": "R21-01578"
            }
          }
        ],
        "status": "final",
        "category": [
          {
            "coding": [
              {
                "system": "http://terminology.hl7.org/CodeSystem/v2-0074",
                "code": "LAB",
                "display": "Laboratory"
              }
            ]
          }
        ],
        "code": {
          "coding": [
            {
              "system": "http://loinc.org",
              "code": "81273-5",
              "display": "fentaNYL and Norfentanyl panel - Specimen"
            }
          ]
        },
        "subject": {
          "reference": "Patient/c54184dd-9d16-488b-b58c-6013f35a6042"
        },
        "effectiveDateTime": "2021-12-03T11:00:00Z",
        "issued": "2022-01-05T11:00:00+00:00",
        "performer": [
          {
            "reference": "Practitioner/fbaf2ce0-45d9-4c91-9018-7c9aa5f8b527"
          }
        ],
        "specimen": [
          {
            "reference": "Specimen/9d3735fc-1711-4f94-bd3f-047af8ad08e6",
            "display": "Whole blood sample (specimen)"
          },
          {
            "reference": "Specimen/2eee6f99-fd40-4dfa-9bf6-7a961f880acb",
            "display": "Urine specimen (specimen)"
          },
          {
            "reference": "Specimen/f68fc7ec-63f6-41f0-8285-9f1a73aaeabd",
            "display": "Vitreous humor sample"
          },
          {
            "reference": "Specimen/70c77f88-ba58-4f44-9e86-5360a3c7eb49",
            "display": "Bile specimen (specimen)"
          },
          {
            "reference": "Specimen/4d0717b4-6417-494b-8eca-1a3844300a33",
            "display": "Tissue specimen from liver (specimen)"
          },
          {
            "reference": "Specimen/8b51a1e9-707b-4147-9621-9b9a0572863b",
            "display": "Specimen from stomach (specimen)"
          }
        ],
        "result": [
          {
            "reference": "Observation/68acc979-3ca3-474d-8ed6-fa74b5c598fc",
            "display": "Ethanol [Mass/volume] in Blood by Gas chromatography"
          },
          {
            "reference": "Observation/6e523689-a366-4406-a340-b0e93b48ef2e",
            "display": "Despropionylfentanyl [Mass/volume] in Serum or Plasma"
          },
          {
            "reference": "Observation/c434a1e7-2b31-464e-badc-3192d9a51e9d",
            "display": "Acetyl norfentanyl [Mass/volume] in Serum, Plasma or Blood by Confirmatory method"
          },
          {
            "reference": "Observation/0e2e1b3d-4e55-4917-be6e-3bdffadb23e6",
            "display": "fentaNYL [Mass/volume] in Blood by Confirmatory method"
          },
          {
            "reference": "Observation/f99ea5a4-5715-4483-b0ae-00133b1e83a0",
            "display": "Ethanol [Mass/volume] in Urine by Confirmatory method"
          },
          {
            "reference": "Observation/dd88bea8-bf24-4d8b-a421-b67dc56091d9",
            "display": "Despropionylfentanyl [Mass/volume] in Serum or Plasma"
          },
          {
            "reference": "Observation/356857a5-906f-4f0a-801d-dc5df2a1b1bd",
            "display": "Acetyl fentanyl [Presence] in Urine by Confirmatory method"
          },
          {
            "reference": "Observation/81caaef3-32bb-4728-b391-e2e09a1a119f",
            "display": "fentaNYL [Presence] in Urine"
          },
          {
            "reference": "Observation/9f1bd087-b888-487c-8ebe-01ea2bcaef73",
            "display": "Norfentanyl [Presence] in Urine"
          },
          {
            "reference": "Observation/761dd2e4-532a-4195-b35f-053733104dff",
            "display": "Ketamine [Presence] in Urine"
          },
          {
            "reference": "Observation/d8ee2b36-f9c6-4d89-8f97-07bc4b794177",
            "display": "Ethanol [Mass/volume] in Vitreous fluid"
          }
        ]
      }
    },
    {
      "fullUrl": "Patient/c54184dd-9d16-488b-b58c-6013f35a6042",
      "resource": {
        "resourceType": "Patient",
        "id": "c54184dd-9d16-488b-b58c-6013f35a6042",
        "meta": {
          "profile": [
            "http://hl7.org/fhir/us/core/StructureDefinition/us-core-patient"
          ]
        },
        "extension": [
          {
            "extension": [
              {
                "url": "ombCategory",
                "valueCoding": {
                  "system": "urn:oid:2.16.840.1.113883.6.238",
                  "code": "2106-3",
                  "display": "White"
                }
              },
              {
                "url": "detailed",
                "valueCoding": {
                  "system": "urn:oid:2.16.840.1.113883.6.238",
                  "code": "1010-8",
                  "display": "Apache"
                }
              },
              {
                "url": "text",
                "valueString": "Apache"
              }
            ],
            "url": "http://hl7.org/fhir/us/core/StructureDefinition/us-core-race"
          },
          {
            "extension": [
              {
                "url": "ombCategory",
                "valueCoding": {
                  "system": "urn:oid:2.16.840.1.113883.6.238",
                  "code": "2186-5",
                  "display": "Not Hispanic or Latino"
                }
              },
              {
                "url": "detailed",
                "valueCoding": {
                  "system": "urn:oid:2.16.840.1.113883.6.238",
                  "code": "2162-6",
                  "display": "Central American Indian"
                }
              },
              {
                "url": "text",
                "valueString": "Not Hispanic or Latino"
              }
            ],
            "url": "http://hl7.org/fhir/us/core/StructureDefinition/us-core-ethnicity"
          },
          {
            "url": "http://hl7.org/fhir/us/core/StructureDefinition/us-core-birthsex",
            "valueCode": "F"
          }
        ],
        "identifier": [
          {
            "use": "usual",
            "type": {
              "coding": [
                {
                  "system": "http://terminology.hl7.org/CodeSystem/v2-0203",
                  "code": "SB",
                  "display": "Social Beneficiary Identifier"
                }
              ]
            },
            "system": "http://hl7.org/fhir/sid/us-ssn",
            "value": "987054321"
          }
        ],
        "name": [
          {
            "family": "FREEMAN",
            "given": [
              "Alice",
              "J"
            ]
          }
        ],
        "telecom": [
          {
            "system": "phone",
            "value": "212-867-5309",
            "use": "home"
          },
          {
            "system": "phone",
            "value": "212-867-5310",
            "use": "home"
          },
          {
            "system": "email",
            "value": "mywork@gtri.org",
            "use": "work"
          }
        ],
        "gender": "female",
        "birthDate": "1965-05-02",
        "deceasedDateTime": "2014-03-02",
        "address": [
          {
            "use": "home",
            "state": "TX",
            "postalCode": "77018",
            "country": "USA"
          }
        ]
      }
    },
    {
      "fullUrl": "Practitioner/fbaf2ce0-45d9-4c91-9018-7c9aa5f8b527",
      "resource": {
        "resourceType": "Practitioner",
        "id": "fbaf2ce0-45d9-4c91-9018-7c9aa5f8b527",
        "meta": {
          "profile": [
            "http://hl7.org/fhir/us/core/StructureDefinition/us-core-practitioner"
          ]
        },
        "identifier": [
          {
            "system": "http://hl7.org/fhir/sid/us-npi",
            "value": "555667777"
          }
        ],
        "name": [
          {
            "use": "official",
            "family": "Goldberger",
            "given": [
              "Bruce"
            ],
            "prefix": [
              "Dr"
            ]
          }
        ]
      }
    },
    {
      "fullUrl": "Specimen/9d3735fc-1711-4f94-bd3f-047af8ad08e6",
      "resource": {
        "resourceType": "Specimen",
        "id": "9d3735fc-1711-4f94-bd3f-047af8ad08e6",
        "meta": {
          "profile": [
            "http://hl7.org/fhir/us/mdi/StructureDefinition/Specimen-toxicology-lab"
          ]
        },
        "accessionIdentifier": {
          "system": "http://lab.acme.org/specimens/2021",
          "value": "X352356"
        },
        "status": "available",
        "type": {
          "text": "Whole blood sample (specimen)"
        },
        "subject": {
          "reference": "Patient/c54184dd-9d16-488b-b58c-6013f35a6042"
        },
        "receivedTime": "2021-12-03T16:00:00Z",
        "collection": {
          "collectedDateTime": "2021-12-03T11:00:00Z",
          "bodySite": {
            "coding": [
              {
                "system": "http://snomed.info/sct",
                "code": "83419000",
                "display": "Femoral vein structure (body structure)"
              }
            ]
          }
        },
        "container": [
          {
            "description": "10mL GT tube",
            "type": {
              "coding": [
                {
                  "system": "http://snomed.info/sct",
                  "code": "702287009",
                  "display": "Non-evacuated blood collection tube, potassium oxalate/sodium fluoride (physical object)"
                }
              ],
              "text": "GT tube"
            },
            "specimenQuantity": {
              "value": 20,
              "unit": "ml"
            }
          }
        ]
      }
    },
    {
      "fullUrl": "Specimen/2eee6f99-fd40-4dfa-9bf6-7a961f880acb",
      "resource": {
        "resourceType": "Specimen",
        "id": "2eee6f99-fd40-4dfa-9bf6-7a961f880acb",
        "meta": {
          "profile": [
            "http://hl7.org/fhir/us/mdi/StructureDefinition/Specimen-toxicology-lab"
          ]
        },
        "accessionIdentifier": {
          "system": "http://lab.acme.org/specimens/2021",
          "value": "ZZZ352356"
        },
        "status": "available",
        "type": {
          "text": "Urine specimen (specimen)"
        },
        "subject": {
          "reference": "Patient/c54184dd-9d16-488b-b58c-6013f35a6042"
        },
        "receivedTime": "2021-12-03T16:00:00Z",
        "collection": {
          "collectedDateTime": "2021-12-03T11:00:00Z",
          "bodySite": {
            "coding": [
              {
                "system": "http://snomed.info/sct",
                "code": "83419000",
                "display": "Femoral vein structure (body structure)"
              }
            ]
          }
        },
        "container": [
          {
            "description": "10mL RT tube",
            "specimenQuantity": {
              "value": 5,
              "unit": "ml"
            }
          }
        ]
      }
    },
    {
      "fullUrl": "Specimen/f68fc7ec-63f6-41f0-8285-9f1a73aaeabd",
      "resource": {
        "resourceType": "Specimen",
        "id": "f68fc7ec-63f6-41f0-8285-9f1a73aaeabd",
        "meta": {
          "profile": [
            "http://hl7.org/fhir/us/mdi/StructureDefinition/Specimen-toxicology-lab"
          ]
        },
        "accessionIdentifier": {
          "system": "http://lab.acme.org/specimens/2021",
          "value": "XXX352356"
        },
        "status": "available",
        "type": {
          "coding": [
            {
              "system": "http://snomed.info/sct",
              "code": "258438000",
              "display": "Vitreous humor sample"
            }
          ],
          "text": "Vitreous humor sample"
        },
        "subject": {
          "reference": "Patient/c54184dd-9d16-488b-b58c-6013f35a6042"
        },
        "receivedTime": "2021-12-03T16:00:00Z",
        "collection": {
          "collectedDateTime": "2021-12-03T11:00:00Z",
          "bodySite": {
            "coding": [
              {
                "system": "http://snomed.info/sct",
                "code": "83419000",
                "display": "Femoral vein structure (body structure)"
              }
            ]
          }
        },
        "container": [
          {
            "description": "10mL RT tube",
            "specimenQuantity": {
              "value": 3,
              "unit": "ml"
            }
          }
        ]
      }
    },
    {
      "fullUrl": "Specimen/70c77f88-ba58-4f44-9e86-5360a3c7eb49",
      "resource": {
        "resourceType": "Specimen",
        "id": "70c77f88-ba58-4f44-9e86-5360a3c7eb49",
        "meta": {
          "profile": [
            "http://hl7.org/fhir/us/mdi/StructureDefinition/Specimen-toxicology-lab"
          ]
        },
        "accessionIdentifier": {
          "system": "http://lab.acme.org/specimens/2021",
          "value": "OO352356"
        },
        "status": "available",
        "type": {
          "text": "Bile specimen (specimen)"
        },
        "subject": {
          "reference": "Patient/c54184dd-9d16-488b-b58c-6013f35a6042"
        },
        "receivedTime": "2021-12-03T16:00:00Z",
        "container": [
          {
            "description": "3mL sample of bile specimen",
            "specimenQuantity": {
              "value": 3,
              "unit": "ml"
            }
          }
        ]
      }
    },
    {
      "fullUrl": "Specimen/4d0717b4-6417-494b-8eca-1a3844300a33",
      "resource": {
        "resourceType": "Specimen",
        "id": "4d0717b4-6417-494b-8eca-1a3844300a33",
        "meta": {
          "profile": [
            "http://hl7.org/fhir/us/mdi/StructureDefinition/Specimen-toxicology-lab"
          ]
        },
        "accessionIdentifier": {
          "system": "http://lab.acme.org/specimens/2021",
          "value": "DD352356"
        },
        "status": "available",
        "type": {
          "text": "Tissue specimen from liver (specimen)"
        },
        "subject": {
          "reference": "Patient/c54184dd-9d16-488b-b58c-6013f35a6042"
        },
        "receivedTime": "2021-12-03T16:00:00Z",
        "container": [
          {
            "description": "5mL sample of liver specimen",
            "specimenQuantity": {
              "value": 5,
              "unit": "ml"
            }
          }
        ]
      }
    },
    {
      "fullUrl": "Specimen/8b51a1e9-707b-4147-9621-9b9a0572863b",
      "resource": {
        "resourceType": "Specimen",
        "id": "8b51a1e9-707b-4147-9621-9b9a0572863b",
        "meta": {
          "profile": [
            "http://hl7.org/fhir/us/mdi/StructureDefinition/Specimen-toxicology-lab"
          ]
        },
        "accessionIdentifier": {
          "system": "http://lab.acme.org/specimens/2021",
          "value": "MM352356"
        },
        "status": "available",
        "type": {
          "coding": [
            {
              "system": "http://snomed.info/sct",
              "code": "258580003",
              "display": "Whole blood specimen"
            }
          ],
          "text": "Specimen from stomach (specimen)"
        },
        "subject": {
          "reference": "Patient/c54184dd-9d16-488b-b58c-6013f35a6042"
        },
        "receivedTime": "2021-12-03T16:00:00Z",
        "collection": {
          "collectedDateTime": "2021-12-03T11:00:00Z",
          "bodySite": {
            "coding": [
              {
                "system": "http://snomed.info/sct",
                "code": "83419000",
                "display": "Femoral vein structure (body structure)"
              }
            ]
          }
        },
        "container": [
          {
            "description": "60mL sample of stomach contents specimen",
            "specimenQuantity": {
              "value": 60,
              "unit": "ml"
            }
          }
        ]
      }
    },
    {
      "fullUrl": "Observation/68acc979-3ca3-474d-8ed6-fa74b5c598fc",
      "resource": {
        "resourceType": "Observation",
        "id": "68acc979-3ca3-474d-8ed6-fa74b5c598fc",
        "meta": {
          "profile": [
            "http://hl7.org/fhir/us/mdi/StructureDefinition/Observation-toxicology-lab-result"
          ]
        },
        "status": "final",
        "category": [
          {
            "coding": [
              {
                "system": "http://terminology.hl7.org/CodeSystem/observation-category",
                "code": "laboratory",
                "display": "Laboratory"
              }
            ]
          }
        ],
        "code": {
          "coding": [
            {
              "system": "http://loinc.org",
              "code": "56478-1",
              "display": "Ethanol [Mass/volume] in Blood by Gas chromatography"
            }
          ],
          "text": "Ethanol [Mass/volume] in Blood by Gas chromatography"
        },
        "subject": {
          "reference": "Patient/c54184dd-9d16-488b-b58c-6013f35a6042"
        },
        "effectiveDateTime": "2021-12-03",
        "valueString": "0.145 g/dL",
        "specimen": {
          "reference": "Specimen/9d3735fc-1711-4f94-bd3f-047af8ad08e6"
        }
      }
    },
    {
      "fullUrl": "Observation/6e523689-a366-4406-a340-b0e93b48ef2e",
      "resource": {
        "resourceType": "Observation",
        "id": "6e523689-a366-4406-a340-b0e93b48ef2e",
        "meta": {
          "profile": [
            "http://hl7.org/fhir/us/mdi/StructureDefinition/Observation-toxicology-lab-result"
          ]
        },
        "status": "final",
        "category": [
          {
            "coding": [
              {
                "system": "http://terminology.hl7.org/CodeSystem/observation-category",
                "code": "laboratory",
                "display": "Laboratory"
              }
            ]
          }
        ],
        "code": {
          "coding": [
            {
              "system": "http://loinc.org",
              "code": "11072-6",
              "display": "Despropionylfentanyl [Mass/volume] in Serum or Plasma"
            }
          ],
          "text": "Despropionylfentanyl [Mass/volume] in Serum or Plasma"
        },
        "subject": {
          "reference": "Patient/c54184dd-9d16-488b-b58c-6013f35a6042"
        },
        "effectiveDateTime": "2021-12-03",
        "valueString": "true",
        "specimen": {
          "reference": "Specimen/9d3735fc-1711-4f94-bd3f-047af8ad08e6"
        }
      }
    },
    {
      "fullUrl": "Observation/c434a1e7-2b31-464e-badc-3192d9a51e9d",
      "resource": {
        "resourceType": "Observation",
        "id": "c434a1e7-2b31-464e-badc-3192d9a51e9d",
        "meta": {
          "profile": [
            "http://hl7.org/fhir/us/mdi/StructureDefinition/Observation-toxicology-lab-result"
          ]
        },
        "status": "final",
        "category": [
          {
            "coding": [
              {
                "system": "http://terminology.hl7.org/CodeSystem/observation-category",
                "code": "laboratory",
                "display": "Laboratory"
              }
            ]
          }
        ],
        "code": {
          "coding": [
            {
              "system": "http://loinc.org",
              "code": "86223-5",
              "display": "Acetyl norfentanyl [Mass/volume] in Serum, Plasma or Blood by Confirmatory method"
            }
          ],
          "text": "Acetyl norfentanyl [Mass/volume] in Serum, Plasma or Blood by Confirmatory method"
        },
        "subject": {
          "reference": "Patient/c54184dd-9d16-488b-b58c-6013f35a6042"
        },
        "effectiveDateTime": "2021-12-03",
        "valueString": "2 ng/mL",
        "specimen": {
          "reference": "Specimen/9d3735fc-1711-4f94-bd3f-047af8ad08e6"
        }
      }
    },
    {
      "fullUrl": "Observation/0e2e1b3d-4e55-4917-be6e-3bdffadb23e6",
      "resource": {
        "resourceType": "Observation",
        "id": "0e2e1b3d-4e55-4917-be6e-3bdffadb23e6",
        "meta": {
          "profile": [
            "http://hl7.org/fhir/us/mdi/StructureDefinition/Observation-toxicology-lab-result"
          ]
        },
        "status": "final",
        "category": [
          {
            "coding": [
              {
                "system": "http://terminology.hl7.org/CodeSystem/observation-category",
                "code": "laboratory",
                "display": "Laboratory"
              }
            ]
          }
        ],
        "code": {
          "coding": [
            {
              "system": "http://loinc.org",
              "code": "73938-3",
              "display": "fentaNYL [Mass/volume] in Blood by Confirmatory method"
            }
          ],
          "text": "fentaNYL [Mass/volume] in Blood by Confirmatory method"
        },
        "subject": {
          "reference": "Patient/c54184dd-9d16-488b-b58c-6013f35a6042"
        },
        "effectiveDateTime": "2021-12-03",
        "valueString": "23 ng/mL",
        "specimen": {
          "reference": "Specimen/9d3735fc-1711-4f94-bd3f-047af8ad08e6"
        }
      }
    },
    {
      "fullUrl": "Observation/f99ea5a4-5715-4483-b0ae-00133b1e83a0",
      "resource": {
        "resourceType": "Observation",
        "id": "f99ea5a4-5715-4483-b0ae-00133b1e83a0",
        "meta": {
          "profile": [
            "http://hl7.org/fhir/us/mdi/StructureDefinition/Observation-toxicology-lab-result"
          ]
        },
        "status": "final",
        "category": [
          {
            "coding": [
              {
                "system": "http://terminology.hl7.org/CodeSystem/observation-category",
                "code": "laboratory",
                "display": "Laboratory"
              }
            ]
          }
        ],
        "code": {
          "coding": [
            {
              "system": "http://loinc.org",
              "code": "46983-3",
              "display": "Ethanol [Mass/volume] in Urine by Confirmatory method"
            }
          ],
          "text": "Ethanol [Mass/volume] in Urine by Confirmatory method"
        },
        "subject": {
          "reference": "Patient/c54184dd-9d16-488b-b58c-6013f35a6042"
        },
        "effectiveDateTime": "2021-12-03",
        "valueString": "0.16 g/dL",
        "specimen": {
          "reference": "Specimen/2eee6f99-fd40-4dfa-9bf6-7a961f880acb"
        }
      }
    },
    {
      "fullUrl": "Observation/dd88bea8-bf24-4d8b-a421-b67dc56091d9",
      "resource": {
        "resourceType": "Observation",
        "id": "dd88bea8-bf24-4d8b-a421-b67dc56091d9",
        "meta": {
          "profile": [
            "http://hl7.org/fhir/us/mdi/StructureDefinition/Observation-toxicology-lab-result"
          ]
        },
        "status": "final",
        "category": [
          {
            "coding": [
              {
                "system": "http://terminology.hl7.org/CodeSystem/observation-category",
                "code": "laboratory",
                "display": "Laboratory"
              }
            ]
          }
        ],
        "code": {
          "coding": [
            {
              "system": "http://loinc.org",
              "code": "11072-6",
              "display": "Despropionylfentanyl [Mass/volume] in Serum or Plasma"
            }
          ],
          "text": "Despropionylfentanyl [Mass/volume] in Serum or Plasma"
        },
        "subject": {
          "reference": "Patient/c54184dd-9d16-488b-b58c-6013f35a6042"
        },
        "effectiveDateTime": "2021-12-03",
        "valueString": "true",
        "specimen": {
          "reference": "Specimen/2eee6f99-fd40-4dfa-9bf6-7a961f880acb"
        }
      }
    },
    {
      "fullUrl": "Observation/356857a5-906f-4f0a-801d-dc5df2a1b1bd",
      "resource": {
        "resourceType": "Observation",
        "id": "356857a5-906f-4f0a-801d-dc5df2a1b1bd",
        "meta": {
          "profile": [
            "http://hl7.org/fhir/us/mdi/StructureDefinition/Observation-toxicology-lab-result"
          ]
        },
        "status": "final",
        "category": [
          {
            "coding": [
              {
                "system": "http://terminology.hl7.org/CodeSystem/observation-category",
                "code": "laboratory",
                "display": "Laboratory"
              }
            ]
          }
        ],
        "code": {
          "text": "Acetyl fentanyl [Presence] in Urine by Confirmatory method"
        },
        "subject": {
          "reference": "Patient/c54184dd-9d16-488b-b58c-6013f35a6042"
        },
        "effectiveDateTime": "2021-12-03",
        "valueString": "true",
        "specimen": {
          "reference": "Specimen/2eee6f99-fd40-4dfa-9bf6-7a961f880acb"
        }
      }
    },
    {
      "fullUrl": "Observation/81caaef3-32bb-4728-b391-e2e09a1a119f",
      "resource": {
        "resourceType": "Observation",
        "id": "81caaef3-32bb-4728-b391-e2e09a1a119f",
        "meta": {
          "profile": [
            "http://hl7.org/fhir/us/mdi/StructureDefinition/Observation-toxicology-lab-result"
          ]
        },
        "status": "final",
        "category": [
          {
            "coding": [
              {
                "system": "http://terminology.hl7.org/CodeSystem/observation-category",
                "code": "laboratory",
                "display": "Laboratory"
              }
            ]
          }
        ],
        "code": {
          "coding": [
            {
              "system": "http://loinc.org",
              "code": "11235-9",
              "display": "fentaNYL [Presence] in Urine"
            }
          ],
          "text": "fentaNYL [Presence] in Urine"
        },
        "subject": {
          "reference": "Patient/c54184dd-9d16-488b-b58c-6013f35a6042"
        },
        "effectiveDateTime": "2021-12-03",
        "valueString": "true",
        "specimen": {
          "reference": "Specimen/2eee6f99-fd40-4dfa-9bf6-7a961f880acb"
        }
      }
    },
    {
      "fullUrl": "Observation/9f1bd087-b888-487c-8ebe-01ea2bcaef73",
      "resource": {
        "resourceType": "Observation",
        "id": "9f1bd087-b888-487c-8ebe-01ea2bcaef73",
        "meta": {
          "profile": [
            "http://hl7.org/fhir/us/mdi/StructureDefinition/Observation-toxicology-lab-result"
          ]
        },
        "status": "final",
        "category": [
          {
            "coding": [
              {
                "system": "http://terminology.hl7.org/CodeSystem/observation-category",
                "code": "laboratory",
                "display": "Laboratory"
              }
            ]
          }
        ],
        "code": {
          "coding": [
            {
              "system": "http://loinc.org",
              "code": "43199-9",
              "display": "Norfentanyl [Presence] in Urine"
            }
          ],
          "text": "Norfentanyl [Presence] in Urine"
        },
        "subject": {
          "reference": "Patient/c54184dd-9d16-488b-b58c-6013f35a6042"
        },
        "effectiveDateTime": "2021-12-03",
        "valueString": "true",
        "specimen": {
          "reference": "Specimen/2eee6f99-fd40-4dfa-9bf6-7a961f880acb"
        }
      }
    },
    {
      "fullUrl": "Observation/761dd2e4-532a-4195-b35f-053733104dff",
      "resource": {
        "resourceType": "Observation",
        "id": "761dd2e4-532a-4195-b35f-053733104dff",
        "meta": {
          "profile": [
            "http://hl7.org/fhir/us/mdi/StructureDefinition/Observation-toxicology-lab-result"
          ]
        },
        "status": "final",
        "category": [
          {
            "coding": [
              {
                "system": "http://terminology.hl7.org/CodeSystem/observation-category",
                "code": "laboratory",
                "display": "Laboratory"
              }
            ]
          }
        ],
        "code": {
          "coding": [
            {
              "system": "http://loinc.org",
              "code": "12327-3",
              "display": "Ketamine [Presence] in Urine"
            }
          ],
          "text": "Ketamine [Presence] in Urine"
        },
        "subject": {
          "reference": "Patient/c54184dd-9d16-488b-b58c-6013f35a6042"
        },
        "effectiveDateTime": "2021-12-03",
        "valueString": "true",
        "specimen": {
          "reference": "Specimen/2eee6f99-fd40-4dfa-9bf6-7a961f880acb"
        }
      }
    },
    {
      "fullUrl": "Observation/d8ee2b36-f9c6-4d89-8f97-07bc4b794177",
      "resource": {
        "resourceType": "Observation",
        "id": "d8ee2b36-f9c6-4d89-8f97-07bc4b794177",
        "meta": {
          "profile": [
            "http://hl7.org/fhir/us/mdi/StructureDefinition/Observation-toxicology-lab-result"
          ]
        },
        "status": "final",
        "category": [
          {
            "coding": [
              {
                "system": "http://terminology.hl7.org/CodeSystem/observation-category",
                "code": "laboratory",
                "display": "Laboratory"
              }
            ]
          }
        ],
        "code": {
          "coding": [
            {
              "system": "http://loinc.org",
              "code": "12465-1",
              "display": "Ethanol [Mass/volume] in Vitreous fluid"
            }
          ],
          "text": "Ethanol [Mass/volume] in Vitreous fluid"
        },
        "subject": {
          "reference": "Patient/c54184dd-9d16-488b-b58c-6013f35a6042"
        },
        "effectiveDateTime": "2021-12-03",
        "valueString": "0.133 g/dL",
        "specimen": {
          "reference": "Specimen/f68fc7ec-63f6-41f0-8285-9f1a73aaeabd"
        }
      }
    }
  ]
}