{
  "resourceType": "Bundle",
  "meta": {
    "profile": [
      "http://hl7.org/fhir/us/mdi/StructureDefinition/Bundle-message-tox-to-mdi"
    ]
  },
  "identifier": {
    "system": "urn:ietf:rfc:3986",
    "value": "urn:uuid:683dde44f7664b03a20b6324f23986d9"
  },
  "type": "message",
  "entry": [
    {
      "fullUrl": "MessageHeader/4976f373-440c-4f84-a1f5-1580d0cb0405",
      "resource": {
        "resourceType": "MessageHeader",
        "id": "4976f373-440c-4f84-a1f5-1580d0cb0405",
        "meta": {
          "profile": [
            "http://hl7.org/fhir/us/mdi/StructureDefinition/MessageHeader-toxicology-to-mdi"
          ]
        },
        "eventCoding": {
          "system": "http://hl7.org/fhir/us/mdi/CodeSystem/CodeSystem-mdi-codes",
          "code": "tox-result-report",
          "display": "Toxicology Lab Results"
        },
        "source": {
          "name": "University of Florida Pathology Labs, Forensic Toxicology Laboratory",
          "software": "MS Access",
          "version": "1.2.3",
          "contact": {
            "system": "phone",
            "value": "+1 (555) 123 4567"
          },
          "endpoint": "http://uf.org/access/endpoint/1"
        },
        "focus": [
          {
            "reference": "DiagnosticReport/3e01819d-4b9d-4228-8fec-be04ae22d8d9"
          }
        ]
      }
    },
    {
      "fullUrl": "DiagnosticReport/3e01819d-4b9d-4228-8fec-be04ae22d8d9",
      "resource": {
        "resourceType": "DiagnosticReport",
        "id": "3e01819d-4b9d-4228-8fec-be04ae22d8d9",
        "meta": {
          "profile": [
            "http://hl7.org/fhir/us/core/StructureDefinition/us-core-diagnosticreport-lab",
            "http://hl7.org/fhir/us/mdi/StructureDefinition/DiagnosticReport-toxicology-to-mdi"
          ]
        },
        "identifier": [
          {
            "type": {
              "coding": [
                {
                  "system": "http://hl7.org/fhir/us/mdi/CodeSystem/CodeSystem-mdi-codes",
                  "code": "tox-lab-case-number",
                  "display": "Toxicology Laboratory Case Number"
                }
              ]
            },
            "system": "http://uf-path-labs.org/fhir/lab-cases",
            "value": "R21-01578",
            "assigner": {
              "reference": "Organization/c3a83725-0c66-47d4-9666-4952cbc11620"
            }
          }
        ],
        "status": "final",
        "category": [
          {
            "coding": [
              {
                "system": "http://terminology.hl7.org/CodeSystem/v2-0074",
                "code": "LAB",
                "display": "Laboratory"
              }
            ]
          }
        ],
        "code": {
          "coding": [
            {
              "system": "http://loinc.org",
              "code": "81273-5",
              "display": "fentaNYL and Norfentanyl panel - Specimen"
            }
          ]
        },
        "subject": {
          "reference": "Patient/3579bd54-f63a-402b-ae22-dbcf71526213",
          "display": "FREEMAN, Alice"
        },
        "effectiveDateTime": "2021-12-03T11:00:00Z",
        "issued": "2022-01-05T11:00:00+00:00",
        "performer": [
          {
            "reference": "Practitioner/0424b6eb-889f-4978-9ecf-1a85b808446f"
          }
        ],
        "specimen": [
          {
            "reference": "Specimen/5e03e6d9-5685-4200-a271-e4705481d00f",
            "display": "Whole blood sample (specimen)"
          },
          {
            "reference": "Specimen/e5f1266a-86ce-4e6c-8b6b-c02912d6b70b",
            "display": "Urine specimen (specimen)"
          },
          {
            "reference": "Specimen/6fc207f3-26df-4488-bd49-ffb90b545c24",
            "display": "Vitreous humor sample (specimen)"
          },
          {
            "reference": "Specimen/d27f0552-41c7-4438-ab00-8d9a46ac53d1",
            "display": "Bile specimen (specimen)"
          },
          {
            "reference": "Specimen/7ab685e5-2f69-498d-bfd7-476a4fb0fe2a",
            "display": "Tissue specimen from liver (specimen)"
          },
          {
            "reference": "Specimen/d8df1537-1db5-4b2f-b380-3e8fc58b09a6",
            "display": "Specimen from stomach (specimen)"
          }
        ],
        "result": [
          {
            "reference": "Observation/c422150c-ba8f-4bb9-ad71-f90b663eb43a",
            "display": "Ethanol [Mass/volume] in Blood by Gas chromatography"
          },
          {
            "reference": "Observation/96cc633c-36af-46ba-a84d-453908065615",
            "display": "Despropionylfentanyl [Mass/volume] in Serum or Plasma"
          },
          {
            "reference": "Observation/a44697ed-9070-48c2-b96d-c5825b5adee1",
            "display": "Acetyl norfentanyl [Mass/volume] in Serum, Plasma or Blood by Confirmatory method"
          },
          {
            "reference": "Observation/4de7fdf8-abf0-4b10-a751-aa09420a5c3c",
            "display": "fentaNYL [Mass/volume] in Blood by Confirmatory method"
          },
          {
            "reference": "Observation/e0d23cf7-d2ed-4245-a18c-05392e2d1646",
            "display": "Ethanol [Mass/volume] in Urine by Confirmatory method"
          },
          {
            "reference": "Observation/1e09a5e4-7895-455e-935c-dcb19111aaaf",
            "display": "Despropionylfentanyl [Mass/volume] in Serum or Plasma"
          },
          {
            "reference": "Observation/ffed7fae-a355-4801-ac75-9572bd2d6bbb",
            "display": "Acetyl fentanyl [Presence] in Urine by Confirmatory method"
          },
          {
            "reference": "Observation/fc9d02c8-5d53-4efe-9313-57a3b5e51b55",
            "display": "fentaNYL [Presence] in Urine"
          },
          {
            "reference": "Observation/073352f7-369e-4076-8140-694569cc86b1",
            "display": "Norfentanyl [Presence] in Urine"
          },
          {
            "reference": "Observation/9bf3db24-6466-414f-9224-fbf3f00825bb",
            "display": "Ketamine [Presence] in Urine"
          },
          {
            "reference": "Observation/89ee4872-e9ad-4e2e-b7d9-38dc5cb1eac3",
            "display": "Ethanol [Mass/volume] in Vitreous fluid"
          }
        ]
      }
    },
    {
      "fullUrl": "Patient/3579bd54-f63a-402b-ae22-dbcf71526213",
      "resource": {
        "resourceType": "Patient",
        "id": "3579bd54-f63a-402b-ae22-dbcf71526213",
        "meta": {
          "profile": [
            "http://hl7.org/fhir/us/core/StructureDefinition/us-core-patient"
          ]
        },
        "extension": [
          {
            "extension": [
              {
                "url": "ombCategory",
                "valueCoding": {
                  "system": "urn:oid:2.16.840.1.113883.6.238",
                  "code": "2106-3",
                  "display": "White"
                }
              },
              {
                "url": "detailed",
                "valueCoding": {
                  "system": "urn:oid:2.16.840.1.113883.6.238",
                  "code": "1010-8",
                  "display": "Apache"
                }
              },
              {
                "url": "text",
                "valueString": "Apache"
              }
            ],
            "url": "http://hl7.org/fhir/us/core/StructureDefinition/us-core-race"
          },
          {
            "extension": [
              {
                "url": "ombCategory",
                "valueCoding": {
                  "system": "urn:oid:2.16.840.1.113883.6.238",
                  "code": "2186-5",
                  "display": "Not Hispanic or Latino"
                }
              },
              {
                "url": "detailed",
                "valueCoding": {
                  "system": "urn:oid:2.16.840.1.113883.6.238",
                  "code": "2162-6",
                  "display": "Central American Indian"
                }
              },
              {
                "url": "text",
                "valueString": "Not Hispanic or Latino"
              }
            ],
            "url": "http://hl7.org/fhir/us/core/StructureDefinition/us-core-ethnicity"
          },
          {
            "url": "http://hl7.org/fhir/us/core/StructureDefinition/us-core-birthsex",
            "valueCode": "F"
          }
        ],
        "identifier": [
          {
            "use": "usual",
            "type": {
              "coding": [
                {
                  "system": "http://terminology.hl7.org/CodeSystem/v2-0203",
                  "code": "SS",
                  "display": "Social Security number"
                }
              ],
              "text": "Social Security number"
            },
            "system": "http://hospital.smarthealthit.org",
            "value": "987054321"
          }
        ],
        "name": [
          {
            "family": "FREEMAN",
            "given": [
              "Alice",
              "J"
            ]
          }
        ],
        "telecom": [
          {
            "system": "phone",
            "value": "212-867-5309",
            "use": "home"
          },
          {
            "system": "phone",
            "value": "212-867-5310",
            "use": "home"
          },
          {
            "system": "email",
            "value": "mywork@gtri.org",
            "use": "work"
          }
        ],
        "gender": "female",
        "birthDate": "1965-05-02",
        "deceasedDateTime": "2014-03-02",
        "address": [
          {
            "use": "home",
            "state": "TX",
            "postalCode": "77018",
            "country": "USA"
          }
        ]
      }
    },
    {
      "fullUrl": "Practitioner/0424b6eb-889f-4978-9ecf-1a85b808446f",
      "resource": {
        "resourceType": "Practitioner",
        "id": "0424b6eb-889f-4978-9ecf-1a85b808446f",
        "meta": {
          "profile": [
            "http://hl7.org/fhir/us/core/StructureDefinition/us-core-practitioner"
          ]
        },
        "identifier": [
          {
            "system": "http://hl7.org/fhir/sid/us-npi",
            "value": "555667777"
          }
        ],
        "name": [
          {
            "use": "official",
            "family": "Goldberger",
            "given": [
              "Bruce"
            ],
            "prefix": [
              "Dr"
            ]
          }
        ]
      }
    },
    {
      "fullUrl": "Organization/c3a83725-0c66-47d4-9666-4952cbc11620",
      "resource": {
        "resourceType": "Organization",
        "id": "c3a83725-0c66-47d4-9666-4952cbc11620",
        "meta": {
          "profile": [
            "http://hl7.org/fhir/us/core/StructureDefinition/us-core-organization"
          ]
        },
        "identifier": [
          {
            "system": "http://hl7.org/fhir/sid/us-npi",
            "value": "111223333"
          }
        ],
        "active": true,
        "type": [
          {
            "coding": [
              {
                "system": "http://terminology.hl7.org/CodeSystem/organization-type",
                "code": "prov",
                "display": "Healthcare Provider"
              }
            ]
          }
        ],
        "name": "UF Health Pathology Labs, Forensic Toxicology Laboratory",
        "telecom": [
          {
            "system": "phone",
            "value": "(352) 265-9900",
            "use": "work"
          }
        ],
        "address": [
          {
            "line": [
              "4800 SW 35th Drive"
            ],
            "city": "Gainesville",
            "state": "FL",
            "postalCode": "32608",
            "country": "USA"
          }
        ]
      }
    },
    {
      "fullUrl": "Specimen/5e03e6d9-5685-4200-a271-e4705481d00f",
      "resource": {
        "resourceType": "Specimen",
        "id": "5e03e6d9-5685-4200-a271-e4705481d00f",
        "meta": {
          "profile": [
            "http://hl7.org/fhir/us/mdi/StructureDefinition/Specimen-toxicology-lab"
          ]
        },
        "accessionIdentifier": {
          "system": "http://lab.acme.org/specimens/2021",
          "value": "X352356"
        },
        "status": "available",
        "type": {
          "coding": [
            {
              "system": "http://snomed.info/sct",
              "code": "258580003",
              "display": "Whole blood sample (specimen)"
            }
          ],
          "text": "Whole blood sample (specimen)"
        },
        "subject": {
          "reference": "Patient/3579bd54-f63a-402b-ae22-dbcf71526213"
        },
        "receivedTime": "2021-12-03T16:00:00Z",
        "collection": {
          "collectedDateTime": "2021-12-03T11:00:00Z",
          "bodySite": {
            "coding": [
              {
                "system": "http://snomed.info/sct",
                "code": "83419000",
                "display": "Femoral vein structure (body structure)"
              }
            ]
          }
        },
        "container": [
          {
            "description": "10mL GT tube",
            "type": {
              "coding": [
                {
                  "system": "http://snomed.info/sct",
                  "code": "702287009",
                  "display": "Non - evacuated blood collection tube, potassium oxalate / sodium fluoride(physical object)"
                }
              ],
              "text": "GT tube"
            },
            "specimenQuantity": {
              "value": 20,
              "unit": "ml"
            }
          }
        ]
      }
    },
    {
      "fullUrl": "Specimen/e5f1266a-86ce-4e6c-8b6b-c02912d6b70b",
      "resource": {
        "resourceType": "Specimen",
        "id": "e5f1266a-86ce-4e6c-8b6b-c02912d6b70b",
        "meta": {
          "profile": [
            "http://hl7.org/fhir/us/mdi/StructureDefinition/Specimen-toxicology-lab"
          ]
        },
        "accessionIdentifier": {
          "system": "http://lab.acme.org/specimens/2021",
          "value": "ZZZ352356"
        },
        "status": "available",
        "type": {
          "coding": [
            {
              "system": "http://snomed.info/sct",
              "code": "122575003",
              "display": "Urine specimen (specimen)"
            }
          ],
          "text": "Urine specimen (specimen)"
        },
        "subject": {
          "reference": "Patient/3579bd54-f63a-402b-ae22-dbcf71526213"
        },
        "receivedTime": "2021-12-03T16:00:00Z",
        "collection": {
          "collectedDateTime": "2021-12-03T11:00:00Z",
          "bodySite": {
            "coding": [
              {
                "system": "http://snomed.info/sct",
                "code": "83419000",
                "display": "Femoral vein structure (body structure)"
              }
            ]
          }
        },
        "container": [
          {
            "description": "10mL RT tube",
            "specimenQuantity": {
              "value": 5,
              "unit": "ml"
            }
          }
        ]
      }
    },
    {
      "fullUrl": "Specimen/6fc207f3-26df-4488-bd49-ffb90b545c24",
      "resource": {
        "resourceType": "Specimen",
        "id": "6fc207f3-26df-4488-bd49-ffb90b545c24",
        "meta": {
          "profile": [
            "http://hl7.org/fhir/us/mdi/StructureDefinition/Specimen-toxicology-lab"
          ]
        },
        "accessionIdentifier": {
          "system": "http://lab.acme.org/specimens/2021",
          "value": "XXX352356"
        },
        "status": "available",
        "type": {
          "coding": [
            {
              "system": "http://snomed.info/sct",
              "code": "258438000",
              "display": "Vitreous humor sample (specimen)"
            }
          ],
          "text": "Vitreous humor sample (specimen)"
        },
        "subject": {
          "reference": "Patient/3579bd54-f63a-402b-ae22-dbcf71526213"
        },
        "receivedTime": "2021-12-03T16:00:00Z",
        "collection": {
          "collectedDateTime": "2021-12-03T11:00:00Z",
          "bodySite": {
            "coding": [
              {
                "system": "http://snomed.info/sct",
                "code": "83419000",
                "display": "Femoral vein structure (body structure)"
              }
            ]
          }
        },
        "container": [
          {
            "description": "10mL RT tube",
            "specimenQuantity": {
              "value": 3,
              "unit": "ml"
            }
          }
        ]
      }
    },
    {
      "fullUrl": "Specimen/d27f0552-41c7-4438-ab00-8d9a46ac53d1",
      "resource": {
        "resourceType": "Specimen",
        "id": "d27f0552-41c7-4438-ab00-8d9a46ac53d1",
        "meta": {
          "profile": [
            "http://hl7.org/fhir/us/mdi/StructureDefinition/Specimen-toxicology-lab"
          ]
        },
        "accessionIdentifier": {
          "system": "http://lab.acme.org/specimens/2021",
          "value": "OO352356"
        },
        "status": "available",
        "type": {
          "coding": [
            {
              "system": "http://snomed.info/sct",
              "code": "119341000",
              "display": "Bile specimen (specimen)"
            }
          ],
          "text": "Bile specimen (specimen)"
        },
        "subject": {
          "reference": "Patient/3579bd54-f63a-402b-ae22-dbcf71526213"
        },
        "receivedTime": "2021-12-03T16:00:00Z",
        "container": [
          {
            "description": "3mL sample of bile specimen",
            "specimenQuantity": {
              "value": 3,
              "unit": "ml"
            }
          }
        ]
      }
    },
    {
      "fullUrl": "Specimen/7ab685e5-2f69-498d-bfd7-476a4fb0fe2a",
      "resource": {
        "resourceType": "Specimen",
        "id": "7ab685e5-2f69-498d-bfd7-476a4fb0fe2a",
        "meta": {
          "profile": [
            "http://hl7.org/fhir/us/mdi/StructureDefinition/Specimen-toxicology-lab"
          ]
        },
        "accessionIdentifier": {
          "system": "http://lab.acme.org/specimens/2021",
          "value": "DD352356"
        },
        "status": "available",
        "type": {
          "coding": [
            {
              "system": "http://snomed.info/sct",
              "code": "119379005",
              "display": "Tissue specimen from liver (specimen)"
            }
          ],
          "text": "Tissue specimen from liver (specimen)"
        },
        "subject": {
          "reference": "Patient/3579bd54-f63a-402b-ae22-dbcf71526213"
        },
        "receivedTime": "2021-12-03T16:00:00Z",
        "container": [
          {
            "description": "5mL sample of liver specimen",
            "specimenQuantity": {
              "value": 5,
              "unit": "ml"
            }
          }
        ]
      }
    },
    {
      "fullUrl": "Specimen/d8df1537-1db5-4b2f-b380-3e8fc58b09a6",
      "resource": {
        "resourceType": "Specimen",
        "id": "d8df1537-1db5-4b2f-b380-3e8fc58b09a6",
        "meta": {
          "profile": [
            "http://hl7.org/fhir/us/mdi/StructureDefinition/Specimen-toxicology-lab"
          ]
        },
        "accessionIdentifier": {
          "system": "http://lab.acme.org/specimens/2021",
          "value": "MM352356"
        },
        "status": "available",
        "type": {
          "coding": [
            {
              "system": "http://snomed.info/sct",
              "code": "258580003",
              "display": "Specimen from stomach (specimen)"
            }
          ],
          "text": "Specimen from stomach (specimen)"
        },
        "subject": {
          "reference": "Patient/3579bd54-f63a-402b-ae22-dbcf71526213"
        },
        "receivedTime": "2021-12-03T16:00:00Z",
        "collection": {
          "collectedDateTime": "2021-12-03T11:00:00Z",
          "bodySite": {
            "coding": [
              {
                "system": "http://snomed.info/sct",
                "code": "83419000",
                "display": "Femoral vein structure (body structure)"
              }
            ]
          }
        },
        "container": [
          {
            "description": "60mL sample of stomach contents specimen",
            "specimenQuantity": {
              "value": 60,
              "unit": "ml"
            }
          }
        ]
      }
    },
    {
      "fullUrl": "Observation/c422150c-ba8f-4bb9-ad71-f90b663eb43a",
      "resource": {
        "resourceType": "Observation",
        "id": "c422150c-ba8f-4bb9-ad71-f90b663eb43a",
        "meta": {
          "profile": [
            "http://hl7.org/fhir/us/core/StructureDefinition/us-core-observation-lab",
            "http://hl7.org/fhir/us/mdi/StructureDefinition/Observation-toxicology-lab-result"
          ]
        },
        "status": "final",
        "category": [
          {
            "coding": [
              {
                "system": "http://terminology.hl7.org/CodeSystem/observation-category",
                "code": "laboratory",
                "display": "Laboratory"
              }
            ]
          }
        ],
        "code": {
          "coding": [
            {
              "system": "http://loinc.org",
              "code": "56478-1",
              "display": "Ethanol [Mass/volume] in Blood by Gas chromatography"
            }
          ],
          "text": "Ethanol [Mass/volume] in Blood by Gas chromatography"
        },
        "subject": {
          "reference": "Patient/3579bd54-f63a-402b-ae22-dbcf71526213"
        },
        "effectiveDateTime": "2021-12-03",
        "valueQuantity": {
          "value": 0.145,
          "unit": "g/dL",
          "system": "http://unitsofmeasure.org"
        },
        "specimen": {
          "reference": "Specimen/5e03e6d9-5685-4200-a271-e4705481d00f"
        }
      }
    },
    {
      "fullUrl": "Observation/96cc633c-36af-46ba-a84d-453908065615",
      "resource": {
        "resourceType": "Observation",
        "id": "96cc633c-36af-46ba-a84d-453908065615",
        "meta": {
          "profile": [
            "http://hl7.org/fhir/us/core/StructureDefinition/us-core-observation-lab",
            "http://hl7.org/fhir/us/mdi/StructureDefinition/Observation-toxicology-lab-result"
          ]
        },
        "status": "final",
        "category": [
          {
            "coding": [
              {
                "system": "http://terminology.hl7.org/CodeSystem/observation-category",
                "code": "laboratory",
                "display": "Laboratory"
              }
            ]
          }
        ],
        "code": {
          "coding": [
            {
              "system": "http://loinc.org",
              "code": "11072-6",
              "display": "Despropionylfentanyl [Mass/volume] in Serum or Plasma"
            }
          ],
          "text": "Despropionylfentanyl [Mass/volume] in Serum or Plasma"
        },
        "subject": {
          "reference": "Patient/3579bd54-f63a-402b-ae22-dbcf71526213"
        },
        "effectiveDateTime": "2021-12-03",
        "valueBoolean": true,
        "specimen": {
          "reference": "Specimen/5e03e6d9-5685-4200-a271-e4705481d00f"
        }
      }
    },
    {
      "fullUrl": "Observation/a44697ed-9070-48c2-b96d-c5825b5adee1",
      "resource": {
        "resourceType": "Observation",
        "id": "a44697ed-9070-48c2-b96d-c5825b5adee1",
        "meta": {
          "profile": [
            "http://hl7.org/fhir/us/core/StructureDefinition/us-core-observation-lab",
            "http://hl7.org/fhir/us/mdi/StructureDefinition/Observation-toxicology-lab-result"
          ]
        },
        "status": "final",
        "category": [
          {
            "coding": [
              {
                "system": "http://terminology.hl7.org/CodeSystem/observation-category",
                "code": "laboratory",
                "display": "Laboratory"
              }
            ]
          }
        ],
        "code": {
          "coding": [
            {
              "system": "http://loinc.org",
              "code": "86223-5",
              "display": "Acetyl norfentanyl [Mass/volume] in Serum, Plasma or Blood by Confirmatory method"
            }
          ],
          "text": "Acetyl norfentanyl [Mass/volume] in Serum, Plasma or Blood by Confirmatory method"
        },
        "subject": {
          "reference": "Patient/3579bd54-f63a-402b-ae22-dbcf71526213"
        },
        "effectiveDateTime": "2021-12-03",
        "valueQuantity": {
          "value": 2,
          "unit": "ng/mL",
          "system": "http://unitsofmeasure.org"
        },
        "specimen": {
          "reference": "Specimen/5e03e6d9-5685-4200-a271-e4705481d00f"
        }
      }
    },
    {
      "fullUrl": "Observation/4de7fdf8-abf0-4b10-a751-aa09420a5c3c",
      "resource": {
        "resourceType": "Observation",
        "id": "4de7fdf8-abf0-4b10-a751-aa09420a5c3c",
        "meta": {
          "profile": [
            "http://hl7.org/fhir/us/core/StructureDefinition/us-core-observation-lab",
            "http://hl7.org/fhir/us/mdi/StructureDefinition/Observation-toxicology-lab-result"
          ]
        },
        "status": "final",
        "category": [
          {
            "coding": [
              {
                "system": "http://terminology.hl7.org/CodeSystem/observation-category",
                "code": "laboratory",
                "display": "Laboratory"
              }
            ]
          }
        ],
        "code": {
          "coding": [
            {
              "system": "http://loinc.org",
              "code": "73938-3",
              "display": "fentaNYL [Mass/volume] in Blood by Confirmatory method"
            }
          ],
          "text": "fentaNYL [Mass/volume] in Blood by Confirmatory method"
        },
        "subject": {
          "reference": "Patient/3579bd54-f63a-402b-ae22-dbcf71526213"
        },
        "effectiveDateTime": "2021-12-03",
        "valueQuantity": {
          "value": 23,
          "unit": "ng/mL",
          "system": "http://unitsofmeasure.org"
        },
        "specimen": {
          "reference": "Specimen/5e03e6d9-5685-4200-a271-e4705481d00f"
        }
      }
    },
    {
      "fullUrl": "Observation/e0d23cf7-d2ed-4245-a18c-05392e2d1646",
      "resource": {
        "resourceType": "Observation",
        "id": "e0d23cf7-d2ed-4245-a18c-05392e2d1646",
        "meta": {
          "profile": [
            "http://hl7.org/fhir/us/core/StructureDefinition/us-core-observation-lab",
            "http://hl7.org/fhir/us/mdi/StructureDefinition/Observation-toxicology-lab-result"
          ]
        },
        "status": "final",
        "category": [
          {
            "coding": [
              {
                "system": "http://terminology.hl7.org/CodeSystem/observation-category",
                "code": "laboratory",
                "display": "Laboratory"
              }
            ]
          }
        ],
        "code": {
          "coding": [
            {
              "system": "http://loinc.org",
              "code": "46983-3",
              "display": "Ethanol [Mass/volume] in Urine by Confirmatory method"
            }
          ],
          "text": "Ethanol [Mass/volume] in Urine by Confirmatory method"
        },
        "subject": {
          "reference": "Patient/3579bd54-f63a-402b-ae22-dbcf71526213"
        },
        "effectiveDateTime": "2021-12-03",
        "valueQuantity": {
          "value": 0.16,
          "unit": "g/dL",
          "system": "http://unitsofmeasure.org"
        },
        "specimen": {
          "reference": "Specimen/e5f1266a-86ce-4e6c-8b6b-c02912d6b70b"
        }
      }
    },
    {
      "fullUrl": "Observation/1e09a5e4-7895-455e-935c-dcb19111aaaf",
      "resource": {
        "resourceType": "Observation",
        "id": "1e09a5e4-7895-455e-935c-dcb19111aaaf",
        "meta": {
          "profile": [
            "http://hl7.org/fhir/us/core/StructureDefinition/us-core-observation-lab",
            "http://hl7.org/fhir/us/mdi/StructureDefinition/Observation-toxicology-lab-result"
          ]
        },
        "status": "final",
        "category": [
          {
            "coding": [
              {
                "system": "http://terminology.hl7.org/CodeSystem/observation-category",
                "code": "laboratory",
                "display": "Laboratory"
              }
            ]
          }
        ],
        "code": {
          "coding": [
            {
              "system": "http://loinc.org",
              "code": "11072-6",
              "display": "Despropionylfentanyl [Mass/volume] in Serum or Plasma"
            }
          ],
          "text": "Despropionylfentanyl [Mass/volume] in Serum or Plasma"
        },
        "subject": {
          "reference": "Patient/3579bd54-f63a-402b-ae22-dbcf71526213"
        },
        "effectiveDateTime": "2021-12-03",
        "valueBoolean": true,
        "specimen": {
          "reference": "Specimen/e5f1266a-86ce-4e6c-8b6b-c02912d6b70b"
        }
      }
    },
    {
      "fullUrl": "Observation/ffed7fae-a355-4801-ac75-9572bd2d6bbb",
      "resource": {
        "resourceType": "Observation",
        "id": "ffed7fae-a355-4801-ac75-9572bd2d6bbb",
        "meta": {
          "profile": [
            "http://hl7.org/fhir/us/core/StructureDefinition/us-core-observation-lab",
            "http://hl7.org/fhir/us/mdi/StructureDefinition/Observation-toxicology-lab-result"
          ]
        },
        "status": "final",
        "category": [
          {
            "coding": [
              {
                "system": "http://terminology.hl7.org/CodeSystem/observation-category",
                "code": "laboratory",
                "display": "Laboratory"
              }
            ]
          }
        ],
        "code": {
          "coding": [
            {
              "system": "http://loinc.org",
              "code": "74810-3",
              "display": "Acetyl fentanyl [Presence] in Urine by Confirmatory method"
            }
          ],
          "text": "Acetyl fentanyl [Presence] in Urine by Confirmatory method"
        },
        "subject": {
          "reference": "Patient/3579bd54-f63a-402b-ae22-dbcf71526213"
        },
        "effectiveDateTime": "2021-12-03",
        "valueBoolean": true,
        "specimen": {
          "reference": "Specimen/e5f1266a-86ce-4e6c-8b6b-c02912d6b70b"
        }
      }
    },
    {
      "fullUrl": "Observation/fc9d02c8-5d53-4efe-9313-57a3b5e51b55",
      "resource": {
        "resourceType": "Observation",
        "id": "fc9d02c8-5d53-4efe-9313-57a3b5e51b55",
        "meta": {
          "profile": [
            "http://hl7.org/fhir/us/core/StructureDefinition/us-core-observation-lab",
            "http://hl7.org/fhir/us/mdi/StructureDefinition/Observation-toxicology-lab-result"
          ]
        },
        "status": "final",
        "category": [
          {
            "coding": [
              {
                "system": "http://terminology.hl7.org/CodeSystem/observation-category",
                "code": "laboratory",
                "display": "Laboratory"
              }
            ]
          }
        ],
        "code": {
          "coding": [
            {
              "system": "http://loinc.org",
              "code": "11235-9",
              "display": "fentaNYL [Presence] in Urine"
            }
          ],
          "text": "fentaNYL [Presence] in Urine"
        },
        "subject": {
          "reference": "Patient/3579bd54-f63a-402b-ae22-dbcf71526213"
        },
        "effectiveDateTime": "2021-12-03",
        "valueBoolean": true,
        "specimen": {
          "reference": "Specimen/e5f1266a-86ce-4e6c-8b6b-c02912d6b70b"
        }
      }
    },
    {
      "fullUrl": "Observation/073352f7-369e-4076-8140-694569cc86b1",
      "resource": {
        "resourceType": "Observation",
        "id": "073352f7-369e-4076-8140-694569cc86b1",
        "meta": {
          "profile": [
            "http://hl7.org/fhir/us/core/StructureDefinition/us-core-observation-lab",
            "http://hl7.org/fhir/us/mdi/StructureDefinition/Observation-toxicology-lab-result"
          ]
        },
        "status": "final",
        "category": [
          {
            "coding": [
              {
                "system": "http://terminology.hl7.org/CodeSystem/observation-category",
                "code": "laboratory",
                "display": "Laboratory"
              }
            ]
          }
        ],
        "code": {
          "coding": [
            {
              "system": "http://loinc.org",
              "code": "43199-9",
              "display": "Norfentanyl [Presence] in Urine"
            }
          ],
          "text": "Norfentanyl [Presence] in Urine"
        },
        "subject": {
          "reference": "Patient/3579bd54-f63a-402b-ae22-dbcf71526213"
        },
        "effectiveDateTime": "2021-12-03",
        "valueBoolean": true,
        "specimen": {
          "reference": "Specimen/e5f1266a-86ce-4e6c-8b6b-c02912d6b70b"
        }
      }
    },
    {
      "fullUrl": "Observation/9bf3db24-6466-414f-9224-fbf3f00825bb",
      "resource": {
        "resourceType": "Observation",
        "id": "9bf3db24-6466-414f-9224-fbf3f00825bb",
        "meta": {
          "profile": [
            "http://hl7.org/fhir/us/core/StructureDefinition/us-core-observation-lab",
            "http://hl7.org/fhir/us/mdi/StructureDefinition/Observation-toxicology-lab-result"
          ]
        },
        "status": "final",
        "category": [
          {
            "coding": [
              {
                "system": "http://terminology.hl7.org/CodeSystem/observation-category",
                "code": "laboratory",
                "display": "Laboratory"
              }
            ]
          }
        ],
        "code": {
          "coding": [
            {
              "system": "http://loinc.org",
              "code": "12327-3",
              "display": "Ketamine [Presence] in Urine"
            }
          ],
          "text": "Ketamine [Presence] in Urine"
        },
        "subject": {
          "reference": "Patient/3579bd54-f63a-402b-ae22-dbcf71526213"
        },
        "effectiveDateTime": "2021-12-03",
        "valueBoolean": true,
        "specimen": {
          "reference": "Specimen/e5f1266a-86ce-4e6c-8b6b-c02912d6b70b"
        }
      }
    },
    {
      "fullUrl": "Observation/89ee4872-e9ad-4e2e-b7d9-38dc5cb1eac3",
      "resource": {
        "resourceType": "Observation",
        "id": "89ee4872-e9ad-4e2e-b7d9-38dc5cb1eac3",
        "meta": {
          "profile": [
            "http://hl7.org/fhir/us/core/StructureDefinition/us-core-observation-lab",
            "http://hl7.org/fhir/us/mdi/StructureDefinition/Observation-toxicology-lab-result"
          ]
        },
        "status": "final",
        "category": [
          {
            "coding": [
              {
                "system": "http://terminology.hl7.org/CodeSystem/observation-category",
                "code": "laboratory",
                "display": "Laboratory"
              }
            ]
          }
        ],
        "code": {
          "coding": [
            {
              "system": "http://loinc.org",
              "code": "12465-1",
              "display": "Ethanol [Mass/volume] in Vitreous fluid"
            }
          ],
          "text": "Ethanol [Mass/volume] in Vitreous fluid"
        },
        "subject": {
          "reference": "Patient/3579bd54-f63a-402b-ae22-dbcf71526213"
        },
        "effectiveDateTime": "2021-12-03",
        "valueQuantity": {
          "value": 0.133,
          "unit": "g/dL",
          "system": "http://unitsofmeasure.org"
        },
        "specimen": {
          "reference": "Specimen/6fc207f3-26df-4488-bd49-ffb90b545c24"
        }
      }
    }
  ]
}