{
  "resourceType": "Bundle",
  "meta": {
    "profile": [
      "http://hl7.org/fhir/us/mdi/StructureDefinition/Bundle-message-tox-to-mdi"
    ]
  },
  "identifier": {
    "system": "urn:ietf:rfc:3986",
    "value": "urn:uuid:683dde44f7664b03a20b6324f23986d9"
  },
  "type": "message",
  "entry": [
    {
      "fullUrl": "MessageHeader/7e29a4ae-c40a-4f75-a443-87e5a9d0d864",
      "resource": {
        "resourceType": "MessageHeader",
        "id": "7e29a4ae-c40a-4f75-a443-87e5a9d0d864",
        "meta": {
          "profile": [
            "http://hl7.org/fhir/us/mdi/StructureDefinition/MessageHeader-toxicology-to-mdi"
          ]
        },
        "eventCoding": {
          "system": "http://hl7.org/fhir/us/mdi/CodeSystem/CodeSystem-mdi-codes",
          "code": "tox-result-report",
          "display": "Toxicology Lab Results"
        },
        "source": {
          "name": "University of Florida Pathology Labs, Forensic Toxicology Laboratory",
          "software": "MS Access",
          "version": "1.2.3",
          "contact": {
            "system": "phone",
            "value": "+1 (555) 123 4567"
          },
          "endpoint": "http://uf.org/access/endpoint/1"
        },
        "focus": [
          {
            "reference": "DiagnosticReport/395ef189-a7ae-43a4-bf68-2556a444e6b2"
          }
        ]
      }
    },
    {
      "fullUrl": "DiagnosticReport/395ef189-a7ae-43a4-bf68-2556a444e6b2",
      "resource": {
        "resourceType": "DiagnosticReport",
        "id": "395ef189-a7ae-43a4-bf68-2556a444e6b2",
        "meta": {
          "profile": [
            "http://hl7.org/fhir/us/core/StructureDefinition/us-core-diagnosticreport-lab",
            "http://hl7.org/fhir/us/mdi/StructureDefinition/DiagnosticReport-toxicology-to-mdi"
          ]
        },
        "identifier": [
          {
            "type": {
              "coding": [
                {
                  "system": "http://hl7.org/fhir/us/mdi/CodeSystem/CodeSystem-mdi-codes",
                  "code": "tox-lab-case-number",
                  "display": "Toxicology Laboratory Case Number"
                }
              ]
            },
            "system": "http://uf-path-labs.org/fhir/lab-cases",
            "value": "R21-01578",
            "assigner": {
              "reference": "Organization/6fdd95c3-9e33-4b18-9ff8-81db0d132c7e"
            }
          }
        ],
        "status": "final",
        "category": [
          {
            "coding": [
              {
                "system": "http://terminology.hl7.org/CodeSystem/v2-0074",
                "code": "LAB",
                "display": "Laboratory"
              }
            ]
          }
        ],
        "code": {
          "coding": [
            {
              "system": "http://loinc.org",
              "code": "81273-5",
              "display": "fentaNYL and Norfentanyl panel - Specimen"
            }
          ]
        },
        "subject": {
          "reference": "Patient/42327ee6-a097-4ded-a3bb-79771662a2f1",
          "display": "FREEMAN, Alice"
        },
        "effectiveDateTime": "2021-12-03T11:00:00Z",
        "issued": "2022-01-05T11:00:00+00:00",
        "performer": [
          {
            "reference": "Practitioner/400d2f88-1e6e-4e4f-9cca-fdd512bc48f8"
          }
        ],
        "specimen": [
          {
            "reference": "Specimen/0aa81619-b6db-4099-8e76-3fdc768fab5d",
            "display": "Whole blood sample (specimen)"
          },
          {
            "reference": "Specimen/f88d5d5d-47ae-455e-b2a9-486b30d4f881",
            "display": "Urine specimen (specimen)"
          },
          {
            "reference": "Specimen/2f799e76-359c-4d67-841c-329d8957739a",
            "display": "Vitreous humor sample (specimen)"
          },
          {
            "reference": "Specimen/e81288a9-9923-4d71-90fd-149fb13769c1",
            "display": "Bile specimen (specimen)"
          },
          {
            "reference": "Specimen/5ed9da24-ec2a-4e63-8d8c-328ddb0ed464",
            "display": "Tissue specimen from liver (specimen)"
          },
          {
            "reference": "Specimen/d503d7fb-aaa2-4fb8-bd28-fd8b236ac078",
            "display": "Specimen from stomach (specimen)"
          }
        ],
        "result": [
          {
            "reference": "Observation/53eef1e2-3da1-4b44-abbf-12c16c5373a5",
            "display": "Ethanol [Mass/volume] in Blood by Gas chromatography"
          },
          {
            "reference": "Observation/c0cabc09-f821-4a03-8fbb-403ed67b3d1a",
            "display": "Despropionylfentanyl [Mass/volume] in Serum or Plasma"
          },
          {
            "reference": "Observation/3903eb80-e373-42f3-842b-2514788f8ff4",
            "display": "Acetyl norfentanyl [Mass/volume] in Serum, Plasma or Blood by Confirmatory method"
          },
          {
            "reference": "Observation/b02a1993-005e-4404-88f7-ff31c16e4c98",
            "display": "fentaNYL [Mass/volume] in Blood by Confirmatory method"
          },
          {
            "reference": "Observation/cf8c0f2b-cfb3-4d9f-83d0-0e118ded89ef",
            "display": "Ethanol [Mass/volume] in Urine by Confirmatory method"
          },
          {
            "reference": "Observation/45420680-40ed-4371-a3ca-dc04f2561f85",
            "display": "Despropionylfentanyl [Mass/volume] in Serum or Plasma"
          },
          {
            "reference": "Observation/e7ddec7d-22f2-4471-a99b-de7f9a8ed27e",
            "display": "Acetyl fentanyl [Presence] in Urine by Confirmatory method"
          },
          {
            "reference": "Observation/9b712984-d535-408f-b288-722b82aab219",
            "display": "fentaNYL [Presence] in Urine"
          },
          {
            "reference": "Observation/8fa91e03-fc23-43f4-a0da-023cd3ea990f",
            "display": "Norfentanyl [Presence] in Urine"
          },
          {
            "reference": "Observation/ddecce49-ff78-4dca-a904-ac82504f3eb8",
            "display": "Ketamine [Presence] in Urine"
          },
          {
            "reference": "Observation/a53b8844-43c7-4cc2-8088-c545e7749d27",
            "display": "Ethanol [Mass/volume] in Vitreous fluid"
          }
        ]
      }
    },
    {
      "fullUrl": "Patient/42327ee6-a097-4ded-a3bb-79771662a2f1",
      "resource": {
        "resourceType": "Patient",
        "id": "42327ee6-a097-4ded-a3bb-79771662a2f1",
        "meta": {
          "profile": [
            "http://hl7.org/fhir/us/core/StructureDefinition/us-core-patient"
          ]
        },
        "extension": [
          {
            "extension": [
              {
                "url": "ombCategory",
                "valueCoding": {
                  "system": "urn:oid:2.16.840.1.113883.6.238",
                  "code": "2106-3",
                  "display": "White"
                }
              },
              {
                "url": "detailed",
                "valueCoding": {
                  "system": "urn:oid:2.16.840.1.113883.6.238",
                  "code": "1010-8",
                  "display": "Apache"
                }
              },
              {
                "url": "text",
                "valueString": "Apache"
              }
            ],
            "url": "http://hl7.org/fhir/us/core/StructureDefinition/us-core-race"
          },
          {
            "extension": [
              {
                "url": "ombCategory",
                "valueCoding": {
                  "system": "urn:oid:2.16.840.1.113883.6.238",
                  "code": "2186-5",
                  "display": "Not Hispanic or Latino"
                }
              },
              {
                "url": "detailed",
                "valueCoding": {
                  "system": "urn:oid:2.16.840.1.113883.6.238",
                  "code": "2162-6",
                  "display": "Central American Indian"
                }
              },
              {
                "url": "text",
                "valueString": "Not Hispanic or Latino"
              }
            ],
            "url": "http://hl7.org/fhir/us/core/StructureDefinition/us-core-ethnicity"
          },
          {
            "url": "http://hl7.org/fhir/us/core/StructureDefinition/us-core-birthsex",
            "valueCode": "F"
          }
        ],
        "identifier": [
          {
            "use": "usual",
            "type": {
              "coding": [
                {
                  "system": "http://terminology.hl7.org/CodeSystem/v2-0203",
                  "code": "SS",
                  "display": "Social Security number"
                }
              ],
              "text": "Social Security number"
            },
            "system": "http://hospital.smarthealthit.org",
            "value": "987054321"
          }
        ],
        "name": [
          {
            "family": "FREEMAN",
            "given": [
              "Alice",
              "J"
            ]
          }
        ],
        "telecom": [
          {
            "system": "phone",
            "value": "212-867-5309",
            "use": "home"
          },
          {
            "system": "phone",
            "value": "212-867-5310",
            "use": "home"
          },
          {
            "system": "email",
            "value": "mywork@gtri.org",
            "use": "work"
          }
        ],
        "gender": "female",
        "birthDate": "1965-05-02",
        "deceasedDateTime": "2014-03-02",
        "address": [
          {
            "use": "home",
            "state": "TX",
            "postalCode": "77018",
            "country": "USA"
          }
        ]
      }
    },
    {
      "fullUrl": "Practitioner/400d2f88-1e6e-4e4f-9cca-fdd512bc48f8",
      "resource": {
        "resourceType": "Practitioner",
        "id": "400d2f88-1e6e-4e4f-9cca-fdd512bc48f8",
        "meta": {
          "profile": [
            "http://hl7.org/fhir/us/core/StructureDefinition/us-core-practitioner"
          ]
        },
        "identifier": [
          {
            "system": "http://hl7.org/fhir/sid/us-npi",
            "value": "555667777"
          }
        ],
        "name": [
          {
            "use": "official",
            "family": "Goldberger",
            "given": [
              "Bruce"
            ],
            "prefix": [
              "Dr"
            ]
          }
        ]
      }
    },
    {
      "fullUrl": "Organization/6fdd95c3-9e33-4b18-9ff8-81db0d132c7e",
      "resource": {
        "resourceType": "Organization",
        "id": "6fdd95c3-9e33-4b18-9ff8-81db0d132c7e",
        "meta": {
          "profile": [
            "http://hl7.org/fhir/us/core/StructureDefinition/us-core-organization"
          ]
        },
        "identifier": [
          {
            "system": "http://hl7.org/fhir/sid/us-npi",
            "value": "111223333"
          }
        ],
        "active": true,
        "type": [
          {
            "coding": [
              {
                "system": "http://terminology.hl7.org/CodeSystem/organization-type",
                "code": "prov",
                "display": "Healthcare Provider"
              }
            ]
          }
        ],
        "name": "UF Health Pathology Labs, Forensic Toxicology Laboratory",
        "telecom": [
          {
            "system": "phone",
            "value": "(352) 265-9900",
            "use": "work"
          }
        ],
        "address": [
          {
            "line": [
              "4800 SW 35th Drive"
            ],
            "city": "Gainesville",
            "state": "FL",
            "postalCode": "32608",
            "country": "USA"
          }
        ]
      }
    },
    {
      "fullUrl": "Specimen/0aa81619-b6db-4099-8e76-3fdc768fab5d",
      "resource": {
        "resourceType": "Specimen",
        "id": "0aa81619-b6db-4099-8e76-3fdc768fab5d",
        "meta": {
          "profile": [
            "http://hl7.org/fhir/us/mdi/StructureDefinition/Specimen-toxicology-lab"
          ]
        },
        "accessionIdentifier": {
          "system": "http://lab.acme.org/specimens/2021",
          "value": "X352356"
        },
        "status": "available",
        "type": {
          "coding": [
            {
              "system": "http://snomed.info/sct",
              "code": "258580003",
              "display": "Whole blood sample (specimen)"
            }
          ],
          "text": "Whole blood sample (specimen)"
        },
        "subject": {
          "reference": "Patient/42327ee6-a097-4ded-a3bb-79771662a2f1"
        },
        "receivedTime": "2021-12-03T16:00:00Z",
        "collection": {
          "collectedDateTime": "2021-12-03T11:00:00Z",
          "bodySite": {
            "coding": [
              {
                "system": "http://snomed.info/sct",
                "code": "83419000",
                "display": "Femoral vein structure (body structure)"
              }
            ]
          }
        },
        "container": [
          {
            "description": "10mL GT tube",
            "type": {
              "coding": [
                {
                  "system": "http://snomed.info/sct",
                  "code": "702287009",
                  "display": "Non - evacuated blood collection tube, potassium oxalate / sodium fluoride(physical object)"
                }
              ],
              "text": "GT tube"
            },
            "specimenQuantity": {
              "value": 20,
              "unit": "ml"
            }
          }
        ]
      }
    },
    {
      "fullUrl": "Specimen/f88d5d5d-47ae-455e-b2a9-486b30d4f881",
      "resource": {
        "resourceType": "Specimen",
        "id": "f88d5d5d-47ae-455e-b2a9-486b30d4f881",
        "meta": {
          "profile": [
            "http://hl7.org/fhir/us/mdi/StructureDefinition/Specimen-toxicology-lab"
          ]
        },
        "accessionIdentifier": {
          "system": "http://lab.acme.org/specimens/2021",
          "value": "ZZZ352356"
        },
        "status": "available",
        "type": {
          "coding": [
            {
              "system": "http://snomed.info/sct",
              "code": "122575003",
              "display": "Urine specimen (specimen)"
            }
          ],
          "text": "Urine specimen (specimen)"
        },
        "subject": {
          "reference": "Patient/42327ee6-a097-4ded-a3bb-79771662a2f1"
        },
        "receivedTime": "2021-12-03T16:00:00Z",
        "collection": {
          "collectedDateTime": "2021-12-03T11:00:00Z",
          "bodySite": {
            "coding": [
              {
                "system": "http://snomed.info/sct",
                "code": "83419000",
                "display": "Femoral vein structure (body structure)"
              }
            ]
          }
        },
        "container": [
          {
            "description": "10mL RT tube",
            "specimenQuantity": {
              "value": 5,
              "unit": "ml"
            }
          }
        ]
      }
    },
    {
      "fullUrl": "Specimen/2f799e76-359c-4d67-841c-329d8957739a",
      "resource": {
        "resourceType": "Specimen",
        "id": "2f799e76-359c-4d67-841c-329d8957739a",
        "meta": {
          "profile": [
            "http://hl7.org/fhir/us/mdi/StructureDefinition/Specimen-toxicology-lab"
          ]
        },
        "accessionIdentifier": {
          "system": "http://lab.acme.org/specimens/2021",
          "value": "XXX352356"
        },
        "status": "available",
        "type": {
          "coding": [
            {
              "system": "http://snomed.info/sct",
              "code": "258438000",
              "display": "Vitreous humor sample (specimen)"
            }
          ],
          "text": "Vitreous humor sample (specimen)"
        },
        "subject": {
          "reference": "Patient/42327ee6-a097-4ded-a3bb-79771662a2f1"
        },
        "receivedTime": "2021-12-03T16:00:00Z",
        "collection": {
          "collectedDateTime": "2021-12-03T11:00:00Z",
          "bodySite": {
            "coding": [
              {
                "system": "http://snomed.info/sct",
                "code": "83419000",
                "display": "Femoral vein structure (body structure)"
              }
            ]
          }
        },
        "container": [
          {
            "description": "10mL RT tube",
            "specimenQuantity": {
              "value": 3,
              "unit": "ml"
            }
          }
        ]
      }
    },
    {
      "fullUrl": "Specimen/e81288a9-9923-4d71-90fd-149fb13769c1",
      "resource": {
        "resourceType": "Specimen",
        "id": "e81288a9-9923-4d71-90fd-149fb13769c1",
        "meta": {
          "profile": [
            "http://hl7.org/fhir/us/mdi/StructureDefinition/Specimen-toxicology-lab"
          ]
        },
        "accessionIdentifier": {
          "system": "http://lab.acme.org/specimens/2021",
          "value": "OO352356"
        },
        "status": "available",
        "type": {
          "coding": [
            {
              "system": "http://snomed.info/sct",
              "code": "119341000",
              "display": "Bile specimen (specimen)"
            }
          ],
          "text": "Bile specimen (specimen)"
        },
        "subject": {
          "reference": "Patient/42327ee6-a097-4ded-a3bb-79771662a2f1"
        },
        "receivedTime": "2021-12-03T16:00:00Z",
        "container": [
          {
            "description": "3mL sample of bile specimen",
            "specimenQuantity": {
              "value": 3,
              "unit": "ml"
            }
          }
        ]
      }
    },
    {
      "fullUrl": "Specimen/5ed9da24-ec2a-4e63-8d8c-328ddb0ed464",
      "resource": {
        "resourceType": "Specimen",
        "id": "5ed9da24-ec2a-4e63-8d8c-328ddb0ed464",
        "meta": {
          "profile": [
            "http://hl7.org/fhir/us/mdi/StructureDefinition/Specimen-toxicology-lab"
          ]
        },
        "accessionIdentifier": {
          "system": "http://lab.acme.org/specimens/2021",
          "value": "DD352356"
        },
        "status": "available",
        "type": {
          "coding": [
            {
              "system": "http://snomed.info/sct",
              "code": "119379005",
              "display": "Tissue specimen from liver (specimen)"
            }
          ],
          "text": "Tissue specimen from liver (specimen)"
        },
        "subject": {
          "reference": "Patient/42327ee6-a097-4ded-a3bb-79771662a2f1"
        },
        "receivedTime": "2021-12-03T16:00:00Z",
        "container": [
          {
            "description": "5mL sample of liver specimen",
            "specimenQuantity": {
              "value": 5,
              "unit": "ml"
            }
          }
        ]
      }
    },
    {
      "fullUrl": "Specimen/d503d7fb-aaa2-4fb8-bd28-fd8b236ac078",
      "resource": {
        "resourceType": "Specimen",
        "id": "d503d7fb-aaa2-4fb8-bd28-fd8b236ac078",
        "meta": {
          "profile": [
            "http://hl7.org/fhir/us/mdi/StructureDefinition/Specimen-toxicology-lab"
          ]
        },
        "accessionIdentifier": {
          "system": "http://lab.acme.org/specimens/2021",
          "value": "MM352356"
        },
        "status": "available",
        "type": {
          "coding": [
            {
              "system": "http://snomed.info/sct",
              "code": "258580003",
              "display": "Specimen from stomach (specimen)"
            }
          ],
          "text": "Specimen from stomach (specimen)"
        },
        "subject": {
          "reference": "Patient/42327ee6-a097-4ded-a3bb-79771662a2f1"
        },
        "receivedTime": "2021-12-03T16:00:00Z",
        "collection": {
          "collectedDateTime": "2021-12-03T11:00:00Z",
          "bodySite": {
            "coding": [
              {
                "system": "http://snomed.info/sct",
                "code": "83419000",
                "display": "Femoral vein structure (body structure)"
              }
            ]
          }
        },
        "container": [
          {
            "description": "60mL sample of stomach contents specimen",
            "specimenQuantity": {
              "value": 60,
              "unit": "ml"
            }
          }
        ]
      }
    },
    {
      "fullUrl": "Observation/53eef1e2-3da1-4b44-abbf-12c16c5373a5",
      "resource": {
        "resourceType": "Observation",
        "id": "53eef1e2-3da1-4b44-abbf-12c16c5373a5",
        "meta": {
          "profile": [
            "http://hl7.org/fhir/us/core/StructureDefinition/us-core-observation-lab",
            "http://hl7.org/fhir/us/mdi/StructureDefinition/Observation-toxicology-lab-result"
          ]
        },
        "status": "final",
        "category": [
          {
            "coding": [
              {
                "system": "http://terminology.hl7.org/CodeSystem/observation-category",
                "code": "laboratory",
                "display": "Laboratory"
              }
            ]
          }
        ],
        "code": {
          "coding": [
            {
              "system": "http://loinc.org",
              "code": "56478-1",
              "display": "Ethanol [Mass/volume] in Blood by Gas chromatography"
            }
          ],
          "text": "Ethanol [Mass/volume] in Blood by Gas chromatography"
        },
        "subject": {
          "reference": "Patient/42327ee6-a097-4ded-a3bb-79771662a2f1"
        },
        "effectiveDateTime": "2021-12-03",
        "valueQuantity": {
          "value": 0.145,
          "unit": "g/dL",
          "system": "http://unitsofmeasure.org"
        },
        "specimen": {
          "reference": "Specimen/0aa81619-b6db-4099-8e76-3fdc768fab5d"
        }
      }
    },
    {
      "fullUrl": "Observation/c0cabc09-f821-4a03-8fbb-403ed67b3d1a",
      "resource": {
        "resourceType": "Observation",
        "id": "c0cabc09-f821-4a03-8fbb-403ed67b3d1a",
        "meta": {
          "profile": [
            "http://hl7.org/fhir/us/core/StructureDefinition/us-core-observation-lab",
            "http://hl7.org/fhir/us/mdi/StructureDefinition/Observation-toxicology-lab-result"
          ]
        },
        "status": "final",
        "category": [
          {
            "coding": [
              {
                "system": "http://terminology.hl7.org/CodeSystem/observation-category",
                "code": "laboratory",
                "display": "Laboratory"
              }
            ]
          }
        ],
        "code": {
          "coding": [
            {
              "system": "http://loinc.org",
              "code": "11072-6",
              "display": "Despropionylfentanyl [Mass/volume] in Serum or Plasma"
            }
          ],
          "text": "Despropionylfentanyl [Mass/volume] in Serum or Plasma"
        },
        "subject": {
          "reference": "Patient/42327ee6-a097-4ded-a3bb-79771662a2f1"
        },
        "effectiveDateTime": "2021-12-03",
        "valueBoolean": true,
        "specimen": {
          "reference": "Specimen/0aa81619-b6db-4099-8e76-3fdc768fab5d"
        }
      }
    },
    {
      "fullUrl": "Observation/3903eb80-e373-42f3-842b-2514788f8ff4",
      "resource": {
        "resourceType": "Observation",
        "id": "3903eb80-e373-42f3-842b-2514788f8ff4",
        "meta": {
          "profile": [
            "http://hl7.org/fhir/us/core/StructureDefinition/us-core-observation-lab",
            "http://hl7.org/fhir/us/mdi/StructureDefinition/Observation-toxicology-lab-result"
          ]
        },
        "status": "final",
        "category": [
          {
            "coding": [
              {
                "system": "http://terminology.hl7.org/CodeSystem/observation-category",
                "code": "laboratory",
                "display": "Laboratory"
              }
            ]
          }
        ],
        "code": {
          "coding": [
            {
              "system": "http://loinc.org",
              "code": "86223-5",
              "display": "Acetyl norfentanyl [Mass/volume] in Serum, Plasma or Blood by Confirmatory method"
            }
          ],
          "text": "Acetyl norfentanyl [Mass/volume] in Serum, Plasma or Blood by Confirmatory method"
        },
        "subject": {
          "reference": "Patient/42327ee6-a097-4ded-a3bb-79771662a2f1"
        },
        "effectiveDateTime": "2021-12-03",
        "valueQuantity": {
          "value": 2,
          "unit": "ng/mL",
          "system": "http://unitsofmeasure.org"
        },
        "specimen": {
          "reference": "Specimen/0aa81619-b6db-4099-8e76-3fdc768fab5d"
        }
      }
    },
    {
      "fullUrl": "Observation/b02a1993-005e-4404-88f7-ff31c16e4c98",
      "resource": {
        "resourceType": "Observation",
        "id": "b02a1993-005e-4404-88f7-ff31c16e4c98",
        "meta": {
          "profile": [
            "http://hl7.org/fhir/us/core/StructureDefinition/us-core-observation-lab",
            "http://hl7.org/fhir/us/mdi/StructureDefinition/Observation-toxicology-lab-result"
          ]
        },
        "status": "final",
        "category": [
          {
            "coding": [
              {
                "system": "http://terminology.hl7.org/CodeSystem/observation-category",
                "code": "laboratory",
                "display": "Laboratory"
              }
            ]
          }
        ],
        "code": {
          "coding": [
            {
              "system": "http://loinc.org",
              "code": "73938-3",
              "display": "fentaNYL [Mass/volume] in Blood by Confirmatory method"
            }
          ],
          "text": "fentaNYL [Mass/volume] in Blood by Confirmatory method"
        },
        "subject": {
          "reference": "Patient/42327ee6-a097-4ded-a3bb-79771662a2f1"
        },
        "effectiveDateTime": "2021-12-03",
        "valueQuantity": {
          "value": 23,
          "unit": "ng/mL",
          "system": "http://unitsofmeasure.org"
        },
        "specimen": {
          "reference": "Specimen/0aa81619-b6db-4099-8e76-3fdc768fab5d"
        }
      }
    },
    {
      "fullUrl": "Observation/cf8c0f2b-cfb3-4d9f-83d0-0e118ded89ef",
      "resource": {
        "resourceType": "Observation",
        "id": "cf8c0f2b-cfb3-4d9f-83d0-0e118ded89ef",
        "meta": {
          "profile": [
            "http://hl7.org/fhir/us/core/StructureDefinition/us-core-observation-lab",
            "http://hl7.org/fhir/us/mdi/StructureDefinition/Observation-toxicology-lab-result"
          ]
        },
        "status": "final",
        "category": [
          {
            "coding": [
              {
                "system": "http://terminology.hl7.org/CodeSystem/observation-category",
                "code": "laboratory",
                "display": "Laboratory"
              }
            ]
          }
        ],
        "code": {
          "coding": [
            {
              "system": "http://loinc.org",
              "code": "46983-3",
              "display": "Ethanol [Mass/volume] in Urine by Confirmatory method"
            }
          ],
          "text": "Ethanol [Mass/volume] in Urine by Confirmatory method"
        },
        "subject": {
          "reference": "Patient/42327ee6-a097-4ded-a3bb-79771662a2f1"
        },
        "effectiveDateTime": "2021-12-03",
        "valueQuantity": {
          "value": 0.16,
          "unit": "g/dL",
          "system": "http://unitsofmeasure.org"
        },
        "specimen": {
          "reference": "Specimen/f88d5d5d-47ae-455e-b2a9-486b30d4f881"
        }
      }
    },
    {
      "fullUrl": "Observation/45420680-40ed-4371-a3ca-dc04f2561f85",
      "resource": {
        "resourceType": "Observation",
        "id": "45420680-40ed-4371-a3ca-dc04f2561f85",
        "meta": {
          "profile": [
            "http://hl7.org/fhir/us/core/StructureDefinition/us-core-observation-lab",
            "http://hl7.org/fhir/us/mdi/StructureDefinition/Observation-toxicology-lab-result"
          ]
        },
        "status": "final",
        "category": [
          {
            "coding": [
              {
                "system": "http://terminology.hl7.org/CodeSystem/observation-category",
                "code": "laboratory",
                "display": "Laboratory"
              }
            ]
          }
        ],
        "code": {
          "coding": [
            {
              "system": "http://loinc.org",
              "code": "11072-6",
              "display": "Despropionylfentanyl [Mass/volume] in Serum or Plasma"
            }
          ],
          "text": "Despropionylfentanyl [Mass/volume] in Serum or Plasma"
        },
        "subject": {
          "reference": "Patient/42327ee6-a097-4ded-a3bb-79771662a2f1"
        },
        "effectiveDateTime": "2021-12-03",
        "valueBoolean": true,
        "specimen": {
          "reference": "Specimen/f88d5d5d-47ae-455e-b2a9-486b30d4f881"
        }
      }
    },
    {
      "fullUrl": "Observation/e7ddec7d-22f2-4471-a99b-de7f9a8ed27e",
      "resource": {
        "resourceType": "Observation",
        "id": "e7ddec7d-22f2-4471-a99b-de7f9a8ed27e",
        "meta": {
          "profile": [
            "http://hl7.org/fhir/us/core/StructureDefinition/us-core-observation-lab",
            "http://hl7.org/fhir/us/mdi/StructureDefinition/Observation-toxicology-lab-result"
          ]
        },
        "status": "final",
        "category": [
          {
            "coding": [
              {
                "system": "http://terminology.hl7.org/CodeSystem/observation-category",
                "code": "laboratory",
                "display": "Laboratory"
              }
            ]
          }
        ],
        "code": {
          "coding": [
            {
              "system": "http://loinc.org",
              "code": "74810-3",
              "display": "Acetyl fentanyl [Presence] in Urine by Confirmatory method"
            }
          ],
          "text": "Acetyl fentanyl [Presence] in Urine by Confirmatory method"
        },
        "subject": {
          "reference": "Patient/42327ee6-a097-4ded-a3bb-79771662a2f1"
        },
        "effectiveDateTime": "2021-12-03",
        "valueBoolean": true,
        "specimen": {
          "reference": "Specimen/f88d5d5d-47ae-455e-b2a9-486b30d4f881"
        }
      }
    },
    {
      "fullUrl": "Observation/9b712984-d535-408f-b288-722b82aab219",
      "resource": {
        "resourceType": "Observation",
        "id": "9b712984-d535-408f-b288-722b82aab219",
        "meta": {
          "profile": [
            "http://hl7.org/fhir/us/core/StructureDefinition/us-core-observation-lab",
            "http://hl7.org/fhir/us/mdi/StructureDefinition/Observation-toxicology-lab-result"
          ]
        },
        "status": "final",
        "category": [
          {
            "coding": [
              {
                "system": "http://terminology.hl7.org/CodeSystem/observation-category",
                "code": "laboratory",
                "display": "Laboratory"
              }
            ]
          }
        ],
        "code": {
          "coding": [
            {
              "system": "http://loinc.org",
              "code": "11235-9",
              "display": "fentaNYL [Presence] in Urine"
            }
          ],
          "text": "fentaNYL [Presence] in Urine"
        },
        "subject": {
          "reference": "Patient/42327ee6-a097-4ded-a3bb-79771662a2f1"
        },
        "effectiveDateTime": "2021-12-03",
        "valueBoolean": true,
        "specimen": {
          "reference": "Specimen/f88d5d5d-47ae-455e-b2a9-486b30d4f881"
        }
      }
    },
    {
      "fullUrl": "Observation/8fa91e03-fc23-43f4-a0da-023cd3ea990f",
      "resource": {
        "resourceType": "Observation",
        "id": "8fa91e03-fc23-43f4-a0da-023cd3ea990f",
        "meta": {
          "profile": [
            "http://hl7.org/fhir/us/core/StructureDefinition/us-core-observation-lab",
            "http://hl7.org/fhir/us/mdi/StructureDefinition/Observation-toxicology-lab-result"
          ]
        },
        "status": "final",
        "category": [
          {
            "coding": [
              {
                "system": "http://terminology.hl7.org/CodeSystem/observation-category",
                "code": "laboratory",
                "display": "Laboratory"
              }
            ]
          }
        ],
        "code": {
          "coding": [
            {
              "system": "http://loinc.org",
              "code": "43199-9",
              "display": "Norfentanyl [Presence] in Urine"
            }
          ],
          "text": "Norfentanyl [Presence] in Urine"
        },
        "subject": {
          "reference": "Patient/42327ee6-a097-4ded-a3bb-79771662a2f1"
        },
        "effectiveDateTime": "2021-12-03",
        "valueBoolean": true,
        "specimen": {
          "reference": "Specimen/f88d5d5d-47ae-455e-b2a9-486b30d4f881"
        }
      }
    },
    {
      "fullUrl": "Observation/ddecce49-ff78-4dca-a904-ac82504f3eb8",
      "resource": {
        "resourceType": "Observation",
        "id": "ddecce49-ff78-4dca-a904-ac82504f3eb8",
        "meta": {
          "profile": [
            "http://hl7.org/fhir/us/core/StructureDefinition/us-core-observation-lab",
            "http://hl7.org/fhir/us/mdi/StructureDefinition/Observation-toxicology-lab-result"
          ]
        },
        "status": "final",
        "category": [
          {
            "coding": [
              {
                "system": "http://terminology.hl7.org/CodeSystem/observation-category",
                "code": "laboratory",
                "display": "Laboratory"
              }
            ]
          }
        ],
        "code": {
          "coding": [
            {
              "system": "http://loinc.org",
              "code": "12327-3",
              "display": "Ketamine [Presence] in Urine"
            }
          ],
          "text": "Ketamine [Presence] in Urine"
        },
        "subject": {
          "reference": "Patient/42327ee6-a097-4ded-a3bb-79771662a2f1"
        },
        "effectiveDateTime": "2021-12-03",
        "valueBoolean": true,
        "specimen": {
          "reference": "Specimen/f88d5d5d-47ae-455e-b2a9-486b30d4f881"
        }
      }
    },
    {
      "fullUrl": "Observation/a53b8844-43c7-4cc2-8088-c545e7749d27",
      "resource": {
        "resourceType": "Observation",
        "id": "a53b8844-43c7-4cc2-8088-c545e7749d27",
        "meta": {
          "profile": [
            "http://hl7.org/fhir/us/core/StructureDefinition/us-core-observation-lab",
            "http://hl7.org/fhir/us/mdi/StructureDefinition/Observation-toxicology-lab-result"
          ]
        },
        "status": "final",
        "category": [
          {
            "coding": [
              {
                "system": "http://terminology.hl7.org/CodeSystem/observation-category",
                "code": "laboratory",
                "display": "Laboratory"
              }
            ]
          }
        ],
        "code": {
          "coding": [
            {
              "system": "http://loinc.org",
              "code": "12465-1",
              "display": "Ethanol [Mass/volume] in Vitreous fluid"
            }
          ],
          "text": "Ethanol [Mass/volume] in Vitreous fluid"
        },
        "subject": {
          "reference": "Patient/42327ee6-a097-4ded-a3bb-79771662a2f1"
        },
        "effectiveDateTime": "2021-12-03",
        "valueQuantity": {
          "value": 0.133,
          "unit": "g/dL",
          "system": "http://unitsofmeasure.org"
        },
        "specimen": {
          "reference": "Specimen/2f799e76-359c-4d67-841c-329d8957739a"
        }
      }
    }
  ]
}