{
  "resourceType": "Bundle",
  "meta": {
    "profile": [
      "http://hl7.org/fhir/us/mdi/StructureDefinition/Bundle-message-tox-to-mdi"
    ]
  },
  "identifier": {
    "system": "urn:ietf:rfc:3986",
    "value": "urn:uuid:683dde44f7664b03a20b6324f23986d9"
  },
  "type": "message",
  "entry": [
    {
      "fullUrl": "MessageHeader/4a93b51d-75df-46fd-ab03-16fd047cf195",
      "resource": {
        "resourceType": "MessageHeader",
        "id": "4a93b51d-75df-46fd-ab03-16fd047cf195",
        "meta": {
          "profile": [
            "http://hl7.org/fhir/us/mdi/StructureDefinition/MessageHeader-toxicology-to-mdi"
          ]
        },
        "eventCoding": {
          "system": "http://hl7.org/fhir/us/mdi/CodeSystem/CodeSystem-mdi-codes",
          "code": "tox-result-report",
          "display": "Toxicology Lab Results"
        },
        "source": {
          "name": "University of Florida Pathology Labs, Forensic Toxicology Laboratory",
          "software": "MS Access",
          "version": "1.2.3",
          "contact": {
            "system": "phone",
            "value": "+1 (555) 123 4567"
          },
          "endpoint": "http://uf.org/access/endpoint/1"
        },
        "focus": [
          {
            "reference": "DiagnosticReport/bde34421-0575-4a62-9234-07a9bbafc6b2"
          }
        ]
      }
    },
    {
      "fullUrl": "DiagnosticReport/bde34421-0575-4a62-9234-07a9bbafc6b2",
      "resource": {
        "resourceType": "DiagnosticReport",
        "id": "bde34421-0575-4a62-9234-07a9bbafc6b2",
        "meta": {
          "profile": [
            "http://hl7.org/fhir/us/core/StructureDefinition/us-core-diagnosticreport-lab",
            "http://hl7.org/fhir/us/mdi/StructureDefinition/DiagnosticReport-toxicology-to-mdi"
          ]
        },
        "extension": [
          {
            "url": "http://hl7.org/fhir/us/mdi/StructureDefinition/Extension-tracking-number",
            "valueIdentifier": {
              "type": {
                "coding": [
                  {
                    "system": "http://hl7.org/fhir/us/mdi/CodeSystem/CodeSystem-mdi-codes",
                    "code": "tox-lab-case-number",
                    "display": "Toxicology Laboratory Case Number"
                  }
                ]
              },
              "system": "http://uf-path-labs.org/fhir/lab-cases",
              "value": "R21-01578"
            }
          }
        ],
        "status": "final",
        "category": [
          {
            "coding": [
              {
                "system": "http://terminology.hl7.org/CodeSystem/v2-0074",
                "code": "LAB",
                "display": "Laboratory"
              }
            ]
          }
        ],
        "code": {
          "coding": [
            {
              "system": "http://loinc.org",
              "code": "81273-5",
              "display": "fentaNYL and Norfentanyl panel - Specimen"
            }
          ]
        },
        "subject": {
          "reference": "Patient/95de8c90-8159-40c2-b425-a323f23988e8"
        },
        "effectiveDateTime": "2021-12-03T11:00:00Z",
        "issued": "2022-01-05T11:00:00+00:00",
        "performer": [
          {
            "reference": "Practitioner/eb864b0a-f14c-46ae-9c3b-965218116c7e"
          }
        ],
        "specimen": [
          {
            "reference": "Specimen/6efbac58-df1a-41e3-adfe-598e0df24364",
            "display": "Whole blood sample (specimen)"
          },
          {
            "reference": "Specimen/33f9202a-a7fc-4b30-9d4b-7947306701df",
            "display": "Urine specimen (specimen)"
          },
          {
            "reference": "Specimen/e9887995-33ad-4245-ac4f-a34022247ae9",
            "display": "Vitreous humor sample (specimen)"
          },
          {
            "reference": "Specimen/213edf77-690f-4c8d-a01a-0c021fe1fe03",
            "display": "Bile specimen (specimen)"
          },
          {
            "reference": "Specimen/523d238d-5749-4385-9cd6-deade5678f21",
            "display": "Tissue specimen from liver (specimen)"
          },
          {
            "reference": "Specimen/1d2c54be-7444-4ab4-8c83-13ae5096f3ab",
            "display": "Specimen from stomach (specimen)"
          }
        ],
        "result": [
          {
            "reference": "Observation/e4b6c106-8e19-4f7b-bf78-8813e6998b60",
            "display": "Ethanol [Mass/volume] in Blood by Gas chromatography"
          },
          {
            "reference": "Observation/62d9c7f5-a53d-4c40-ad09-8d5e80248746",
            "display": "Despropionylfentanyl [Mass/volume] in Serum or Plasma"
          },
          {
            "reference": "Observation/f491f9c4-e495-4544-b698-d2771a639b84",
            "display": "Acetyl norfentanyl [Mass/volume] in Serum, Plasma or Blood by Confirmatory method"
          },
          {
            "reference": "Observation/01dd1dba-15c7-4146-a0a4-b37097992223",
            "display": "fentaNYL [Mass/volume] in Blood by Confirmatory method"
          },
          {
            "reference": "Observation/3cda17c2-9f35-4498-a61e-72d933d04be0",
            "display": "Ethanol [Mass/volume] in Urine by Confirmatory method"
          },
          {
            "reference": "Observation/81f2045b-4abe-4969-94ea-d795cf4737c8",
            "display": "Despropionylfentanyl [Mass/volume] in Serum or Plasma"
          },
          {
            "reference": "Observation/0f78c235-df79-441d-a73f-7ee0911c3bae",
            "display": "Acetyl fentanyl [Presence] in Urine by Confirmatory method"
          },
          {
            "reference": "Observation/cbefa232-cd38-4a32-9bdb-c1d28cfb6d08",
            "display": "fentaNYL [Presence] in Urine"
          },
          {
            "reference": "Observation/63daa3d8-597c-47d1-95de-3a4378aa3a8e",
            "display": "Norfentanyl [Presence] in Urine"
          },
          {
            "reference": "Observation/5d3b36db-8c65-4b03-955f-f340b6efac95",
            "display": "Ketamine [Presence] in Urine"
          },
          {
            "reference": "Observation/6bf7b904-20c5-4b27-8967-2de0228085ec",
            "display": "Ethanol [Mass/volume] in Vitreous fluid"
          }
        ]
      }
    },
    {
      "fullUrl": "Patient/95de8c90-8159-40c2-b425-a323f23988e8",
      "resource": {
        "resourceType": "Patient",
        "id": "95de8c90-8159-40c2-b425-a323f23988e8",
        "meta": {
          "profile": [
            "http://hl7.org/fhir/us/core/StructureDefinition/us-core-patient"
          ]
        },
        "extension": [
          {
            "extension": [
              {
                "url": "ombCategory",
                "valueCoding": {
                  "system": "urn:oid:2.16.840.1.113883.6.238",
                  "code": "2106-3",
                  "display": "White"
                }
              },
              {
                "url": "detailed",
                "valueCoding": {
                  "system": "urn:oid:2.16.840.1.113883.6.238",
                  "code": "1010-8",
                  "display": "Apache"
                }
              },
              {
                "url": "text",
                "valueString": "Apache"
              }
            ],
            "url": "http://hl7.org/fhir/us/core/StructureDefinition/us-core-race"
          },
          {
            "extension": [
              {
                "url": "ombCategory",
                "valueCoding": {
                  "system": "urn:oid:2.16.840.1.113883.6.238",
                  "code": "2186-5",
                  "display": "Not Hispanic or Latino"
                }
              },
              {
                "url": "detailed",
                "valueCoding": {
                  "system": "urn:oid:2.16.840.1.113883.6.238",
                  "code": "2162-6",
                  "display": "Central American Indian"
                }
              },
              {
                "url": "text",
                "valueString": "Not Hispanic or Latino"
              }
            ],
            "url": "http://hl7.org/fhir/us/core/StructureDefinition/us-core-ethnicity"
          },
          {
            "url": "http://hl7.org/fhir/us/core/StructureDefinition/us-core-birthsex",
            "valueCode": "F"
          }
        ],
        "identifier": [
          {
            "use": "usual",
            "type": {
              "coding": [
                {
                  "system": "http://terminology.hl7.org/CodeSystem/v2-0203",
                  "code": "SS",
                  "display": "Social Security number"
                }
              ],
              "text": "Social Security number"
            },
            "system": "http://hospital.smarthealthit.org",
            "value": "987054321"
          }
        ],
        "name": [
          {
            "family": "FREEMAN",
            "given": [
              "Alice",
              "J"
            ]
          }
        ],
        "telecom": [
          {
            "system": "phone",
            "value": "212-867-5309",
            "use": "home"
          },
          {
            "system": "phone",
            "value": "212-867-5310",
            "use": "home"
          },
          {
            "system": "email",
            "value": "mywork@gtri.org",
            "use": "work"
          }
        ],
        "gender": "female",
        "birthDate": "1965-05-02",
        "deceasedDateTime": "2014-03-02",
        "address": [
          {
            "use": "home",
            "state": "TX",
            "postalCode": "77018",
            "country": "USA"
          }
        ]
      }
    },
    {
      "fullUrl": "Practitioner/eb864b0a-f14c-46ae-9c3b-965218116c7e",
      "resource": {
        "resourceType": "Practitioner",
        "id": "eb864b0a-f14c-46ae-9c3b-965218116c7e",
        "meta": {
          "profile": [
            "http://hl7.org/fhir/us/core/StructureDefinition/us-core-practitioner"
          ]
        },
        "identifier": [
          {
            "system": "http://hl7.org/fhir/sid/us-npi",
            "value": "555667777"
          }
        ],
        "name": [
          {
            "use": "official",
            "family": "Goldberger",
            "given": [
              "Bruce"
            ],
            "prefix": [
              "Dr"
            ]
          }
        ]
      }
    },
    {
      "fullUrl": "Specimen/6efbac58-df1a-41e3-adfe-598e0df24364",
      "resource": {
        "resourceType": "Specimen",
        "id": "6efbac58-df1a-41e3-adfe-598e0df24364",
        "meta": {
          "profile": [
            "http://hl7.org/fhir/us/mdi/StructureDefinition/Specimen-toxicology-lab"
          ]
        },
        "accessionIdentifier": {
          "system": "http://lab.acme.org/specimens/2021",
          "value": "X352356"
        },
        "status": "available",
        "type": {
          "text": "Whole blood sample (specimen)"
        },
        "subject": {
          "reference": "Patient/95de8c90-8159-40c2-b425-a323f23988e8"
        },
        "receivedTime": "2021-12-03T16:00:00Z",
        "collection": {
          "collectedDateTime": "2021-12-03T11:00:00Z",
          "bodySite": {
            "coding": [
              {
                "system": "http://snomed.info/sct",
                "code": "83419000",
                "display": "Femoral vein structure (body structure)"
              }
            ]
          }
        },
        "container": [
          {
            "description": "10mL GT tube",
            "type": {
              "coding": [
                {
                  "system": "http://snomed.info/sct",
                  "code": "702287009",
                  "display": "Non - evacuated blood collection tube, potassium oxalate / sodium fluoride(physical object)"
                }
              ],
              "text": "GT tube"
            },
            "specimenQuantity": {
              "value": 20,
              "unit": "ml"
            }
          }
        ]
      }
    },
    {
      "fullUrl": "Specimen/33f9202a-a7fc-4b30-9d4b-7947306701df",
      "resource": {
        "resourceType": "Specimen",
        "id": "33f9202a-a7fc-4b30-9d4b-7947306701df",
        "meta": {
          "profile": [
            "http://hl7.org/fhir/us/mdi/StructureDefinition/Specimen-toxicology-lab"
          ]
        },
        "accessionIdentifier": {
          "system": "http://lab.acme.org/specimens/2021",
          "value": "ZZZ352356"
        },
        "status": "available",
        "type": {
          "text": "Urine specimen (specimen)"
        },
        "subject": {
          "reference": "Patient/95de8c90-8159-40c2-b425-a323f23988e8"
        },
        "receivedTime": "2021-12-03T16:00:00Z",
        "collection": {
          "collectedDateTime": "2021-12-03T11:00:00Z",
          "bodySite": {
            "coding": [
              {
                "system": "http://snomed.info/sct",
                "code": "83419000",
                "display": "Femoral vein structure (body structure)"
              }
            ]
          }
        },
        "container": [
          {
            "description": "10mL RT tube",
            "specimenQuantity": {
              "value": 5,
              "unit": "ml"
            }
          }
        ]
      }
    },
    {
      "fullUrl": "Specimen/e9887995-33ad-4245-ac4f-a34022247ae9",
      "resource": {
        "resourceType": "Specimen",
        "id": "e9887995-33ad-4245-ac4f-a34022247ae9",
        "meta": {
          "profile": [
            "http://hl7.org/fhir/us/mdi/StructureDefinition/Specimen-toxicology-lab"
          ]
        },
        "accessionIdentifier": {
          "system": "http://lab.acme.org/specimens/2021",
          "value": "XXX352356"
        },
        "status": "available",
        "type": {
          "coding": [
            {
              "system": "http://snomed.info/sct",
              "code": "258438000",
              "display": "Vitreous humor sample (specimen)"
            }
          ],
          "text": "Vitreous humor sample (specimen)"
        },
        "subject": {
          "reference": "Patient/95de8c90-8159-40c2-b425-a323f23988e8"
        },
        "receivedTime": "2021-12-03T16:00:00Z",
        "collection": {
          "collectedDateTime": "2021-12-03T11:00:00Z",
          "bodySite": {
            "coding": [
              {
                "system": "http://snomed.info/sct",
                "code": "83419000",
                "display": "Femoral vein structure (body structure)"
              }
            ]
          }
        },
        "container": [
          {
            "description": "10mL RT tube",
            "specimenQuantity": {
              "value": 3,
              "unit": "ml"
            }
          }
        ]
      }
    },
    {
      "fullUrl": "Specimen/213edf77-690f-4c8d-a01a-0c021fe1fe03",
      "resource": {
        "resourceType": "Specimen",
        "id": "213edf77-690f-4c8d-a01a-0c021fe1fe03",
        "meta": {
          "profile": [
            "http://hl7.org/fhir/us/mdi/StructureDefinition/Specimen-toxicology-lab"
          ]
        },
        "accessionIdentifier": {
          "system": "http://lab.acme.org/specimens/2021",
          "value": "OO352356"
        },
        "status": "available",
        "type": {
          "text": "Bile specimen (specimen)"
        },
        "subject": {
          "reference": "Patient/95de8c90-8159-40c2-b425-a323f23988e8"
        },
        "receivedTime": "2021-12-03T16:00:00Z",
        "container": [
          {
            "description": "3mL sample of bile specimen",
            "specimenQuantity": {
              "value": 3,
              "unit": "ml"
            }
          }
        ]
      }
    },
    {
      "fullUrl": "Specimen/523d238d-5749-4385-9cd6-deade5678f21",
      "resource": {
        "resourceType": "Specimen",
        "id": "523d238d-5749-4385-9cd6-deade5678f21",
        "meta": {
          "profile": [
            "http://hl7.org/fhir/us/mdi/StructureDefinition/Specimen-toxicology-lab"
          ]
        },
        "accessionIdentifier": {
          "system": "http://lab.acme.org/specimens/2021",
          "value": "DD352356"
        },
        "status": "available",
        "type": {
          "text": "Tissue specimen from liver (specimen)"
        },
        "subject": {
          "reference": "Patient/95de8c90-8159-40c2-b425-a323f23988e8"
        },
        "receivedTime": "2021-12-03T16:00:00Z",
        "container": [
          {
            "description": "5mL sample of liver specimen",
            "specimenQuantity": {
              "value": 5,
              "unit": "ml"
            }
          }
        ]
      }
    },
    {
      "fullUrl": "Specimen/1d2c54be-7444-4ab4-8c83-13ae5096f3ab",
      "resource": {
        "resourceType": "Specimen",
        "id": "1d2c54be-7444-4ab4-8c83-13ae5096f3ab",
        "meta": {
          "profile": [
            "http://hl7.org/fhir/us/mdi/StructureDefinition/Specimen-toxicology-lab"
          ]
        },
        "accessionIdentifier": {
          "system": "http://lab.acme.org/specimens/2021",
          "value": "MM352356"
        },
        "status": "available",
        "type": {
          "coding": [
            {
              "system": "http://snomed.info/sct",
              "code": "258580003",
              "display": "Specimen from stomach (specimen)"
            }
          ],
          "text": "Specimen from stomach (specimen)"
        },
        "subject": {
          "reference": "Patient/95de8c90-8159-40c2-b425-a323f23988e8"
        },
        "receivedTime": "2021-12-03T16:00:00Z",
        "collection": {
          "collectedDateTime": "2021-12-03T11:00:00Z",
          "bodySite": {
            "coding": [
              {
                "system": "http://snomed.info/sct",
                "code": "83419000",
                "display": "Femoral vein structure (body structure)"
              }
            ]
          }
        },
        "container": [
          {
            "description": "60mL sample of stomach contents specimen",
            "specimenQuantity": {
              "value": 60,
              "unit": "ml"
            }
          }
        ]
      }
    },
    {
      "fullUrl": "Observation/e4b6c106-8e19-4f7b-bf78-8813e6998b60",
      "resource": {
        "resourceType": "Observation",
        "id": "e4b6c106-8e19-4f7b-bf78-8813e6998b60",
        "meta": {
          "profile": [
            "http://hl7.org/fhir/us/mdi/StructureDefinition/Observation-toxicology-lab-result"
          ]
        },
        "status": "final",
        "category": [
          {
            "coding": [
              {
                "system": "http://terminology.hl7.org/CodeSystem/observation-category",
                "code": "laboratory",
                "display": "Laboratory"
              }
            ]
          }
        ],
        "code": {
          "coding": [
            {
              "system": "http://loinc.org",
              "code": "56478-1",
              "display": "Ethanol [Mass/volume] in Blood by Gas chromatography"
            }
          ],
          "text": "Ethanol [Mass/volume] in Blood by Gas chromatography"
        },
        "subject": {
          "reference": "Patient/95de8c90-8159-40c2-b425-a323f23988e8"
        },
        "effectiveDateTime": "2021-12-03",
        "valueQuantity": {
          "value": 0.145,
          "unit": "g/dL",
          "system": "http://unitsofmeasure.org"
        },
        "specimen": {
          "reference": "Specimen/6efbac58-df1a-41e3-adfe-598e0df24364"
        }
      }
    },
    {
      "fullUrl": "Observation/62d9c7f5-a53d-4c40-ad09-8d5e80248746",
      "resource": {
        "resourceType": "Observation",
        "id": "62d9c7f5-a53d-4c40-ad09-8d5e80248746",
        "meta": {
          "profile": [
            "http://hl7.org/fhir/us/mdi/StructureDefinition/Observation-toxicology-lab-result"
          ]
        },
        "status": "final",
        "category": [
          {
            "coding": [
              {
                "system": "http://terminology.hl7.org/CodeSystem/observation-category",
                "code": "laboratory",
                "display": "Laboratory"
              }
            ]
          }
        ],
        "code": {
          "coding": [
            {
              "system": "http://loinc.org",
              "code": "11072-6",
              "display": "Despropionylfentanyl [Mass/volume] in Serum or Plasma"
            }
          ],
          "text": "Despropionylfentanyl [Mass/volume] in Serum or Plasma"
        },
        "subject": {
          "reference": "Patient/95de8c90-8159-40c2-b425-a323f23988e8"
        },
        "effectiveDateTime": "2021-12-03",
        "valueBoolean": true,
        "specimen": {
          "reference": "Specimen/6efbac58-df1a-41e3-adfe-598e0df24364"
        }
      }
    },
    {
      "fullUrl": "Observation/f491f9c4-e495-4544-b698-d2771a639b84",
      "resource": {
        "resourceType": "Observation",
        "id": "f491f9c4-e495-4544-b698-d2771a639b84",
        "meta": {
          "profile": [
            "http://hl7.org/fhir/us/mdi/StructureDefinition/Observation-toxicology-lab-result"
          ]
        },
        "status": "final",
        "category": [
          {
            "coding": [
              {
                "system": "http://terminology.hl7.org/CodeSystem/observation-category",
                "code": "laboratory",
                "display": "Laboratory"
              }
            ]
          }
        ],
        "code": {
          "coding": [
            {
              "system": "http://loinc.org",
              "code": "86223-5",
              "display": "Acetyl norfentanyl [Mass/volume] in Serum, Plasma or Blood by Confirmatory method"
            }
          ],
          "text": "Acetyl norfentanyl [Mass/volume] in Serum, Plasma or Blood by Confirmatory method"
        },
        "subject": {
          "reference": "Patient/95de8c90-8159-40c2-b425-a323f23988e8"
        },
        "effectiveDateTime": "2021-12-03",
        "valueQuantity": {
          "value": 2,
          "unit": "ng/mL",
          "system": "http://unitsofmeasure.org"
        },
        "specimen": {
          "reference": "Specimen/6efbac58-df1a-41e3-adfe-598e0df24364"
        }
      }
    },
    {
      "fullUrl": "Observation/01dd1dba-15c7-4146-a0a4-b37097992223",
      "resource": {
        "resourceType": "Observation",
        "id": "01dd1dba-15c7-4146-a0a4-b37097992223",
        "meta": {
          "profile": [
            "http://hl7.org/fhir/us/mdi/StructureDefinition/Observation-toxicology-lab-result"
          ]
        },
        "status": "final",
        "category": [
          {
            "coding": [
              {
                "system": "http://terminology.hl7.org/CodeSystem/observation-category",
                "code": "laboratory",
                "display": "Laboratory"
              }
            ]
          }
        ],
        "code": {
          "coding": [
            {
              "system": "http://loinc.org",
              "code": "73938-3",
              "display": "fentaNYL [Mass/volume] in Blood by Confirmatory method"
            }
          ],
          "text": "fentaNYL [Mass/volume] in Blood by Confirmatory method"
        },
        "subject": {
          "reference": "Patient/95de8c90-8159-40c2-b425-a323f23988e8"
        },
        "effectiveDateTime": "2021-12-03",
        "valueQuantity": {
          "value": 23,
          "unit": "ng/mL",
          "system": "http://unitsofmeasure.org"
        },
        "specimen": {
          "reference": "Specimen/6efbac58-df1a-41e3-adfe-598e0df24364"
        }
      }
    },
    {
      "fullUrl": "Observation/3cda17c2-9f35-4498-a61e-72d933d04be0",
      "resource": {
        "resourceType": "Observation",
        "id": "3cda17c2-9f35-4498-a61e-72d933d04be0",
        "meta": {
          "profile": [
            "http://hl7.org/fhir/us/mdi/StructureDefinition/Observation-toxicology-lab-result"
          ]
        },
        "status": "final",
        "category": [
          {
            "coding": [
              {
                "system": "http://terminology.hl7.org/CodeSystem/observation-category",
                "code": "laboratory",
                "display": "Laboratory"
              }
            ]
          }
        ],
        "code": {
          "coding": [
            {
              "system": "http://loinc.org",
              "code": "46983-3",
              "display": "Ethanol [Mass/volume] in Urine by Confirmatory method"
            }
          ],
          "text": "Ethanol [Mass/volume] in Urine by Confirmatory method"
        },
        "subject": {
          "reference": "Patient/95de8c90-8159-40c2-b425-a323f23988e8"
        },
        "effectiveDateTime": "2021-12-03",
        "valueQuantity": {
          "value": 0.16,
          "unit": "g/dL",
          "system": "http://unitsofmeasure.org"
        },
        "specimen": {
          "reference": "Specimen/33f9202a-a7fc-4b30-9d4b-7947306701df"
        }
      }
    },
    {
      "fullUrl": "Observation/81f2045b-4abe-4969-94ea-d795cf4737c8",
      "resource": {
        "resourceType": "Observation",
        "id": "81f2045b-4abe-4969-94ea-d795cf4737c8",
        "meta": {
          "profile": [
            "http://hl7.org/fhir/us/mdi/StructureDefinition/Observation-toxicology-lab-result"
          ]
        },
        "status": "final",
        "category": [
          {
            "coding": [
              {
                "system": "http://terminology.hl7.org/CodeSystem/observation-category",
                "code": "laboratory",
                "display": "Laboratory"
              }
            ]
          }
        ],
        "code": {
          "coding": [
            {
              "system": "http://loinc.org",
              "code": "11072-6",
              "display": "Despropionylfentanyl [Mass/volume] in Serum or Plasma"
            }
          ],
          "text": "Despropionylfentanyl [Mass/volume] in Serum or Plasma"
        },
        "subject": {
          "reference": "Patient/95de8c90-8159-40c2-b425-a323f23988e8"
        },
        "effectiveDateTime": "2021-12-03",
        "valueBoolean": true,
        "specimen": {
          "reference": "Specimen/33f9202a-a7fc-4b30-9d4b-7947306701df"
        }
      }
    },
    {
      "fullUrl": "Observation/0f78c235-df79-441d-a73f-7ee0911c3bae",
      "resource": {
        "resourceType": "Observation",
        "id": "0f78c235-df79-441d-a73f-7ee0911c3bae",
        "meta": {
          "profile": [
            "http://hl7.org/fhir/us/mdi/StructureDefinition/Observation-toxicology-lab-result"
          ]
        },
        "status": "final",
        "category": [
          {
            "coding": [
              {
                "system": "http://terminology.hl7.org/CodeSystem/observation-category",
                "code": "laboratory",
                "display": "Laboratory"
              }
            ]
          }
        ],
        "code": {
          "text": "Acetyl fentanyl [Presence] in Urine by Confirmatory method"
        },
        "subject": {
          "reference": "Patient/95de8c90-8159-40c2-b425-a323f23988e8"
        },
        "effectiveDateTime": "2021-12-03",
        "valueBoolean": true,
        "specimen": {
          "reference": "Specimen/33f9202a-a7fc-4b30-9d4b-7947306701df"
        }
      }
    },
    {
      "fullUrl": "Observation/cbefa232-cd38-4a32-9bdb-c1d28cfb6d08",
      "resource": {
        "resourceType": "Observation",
        "id": "cbefa232-cd38-4a32-9bdb-c1d28cfb6d08",
        "meta": {
          "profile": [
            "http://hl7.org/fhir/us/mdi/StructureDefinition/Observation-toxicology-lab-result"
          ]
        },
        "status": "final",
        "category": [
          {
            "coding": [
              {
                "system": "http://terminology.hl7.org/CodeSystem/observation-category",
                "code": "laboratory",
                "display": "Laboratory"
              }
            ]
          }
        ],
        "code": {
          "coding": [
            {
              "system": "http://loinc.org",
              "code": "11235-9",
              "display": "fentaNYL [Presence] in Urine"
            }
          ],
          "text": "fentaNYL [Presence] in Urine"
        },
        "subject": {
          "reference": "Patient/95de8c90-8159-40c2-b425-a323f23988e8"
        },
        "effectiveDateTime": "2021-12-03",
        "valueBoolean": true,
        "specimen": {
          "reference": "Specimen/33f9202a-a7fc-4b30-9d4b-7947306701df"
        }
      }
    },
    {
      "fullUrl": "Observation/63daa3d8-597c-47d1-95de-3a4378aa3a8e",
      "resource": {
        "resourceType": "Observation",
        "id": "63daa3d8-597c-47d1-95de-3a4378aa3a8e",
        "meta": {
          "profile": [
            "http://hl7.org/fhir/us/mdi/StructureDefinition/Observation-toxicology-lab-result"
          ]
        },
        "status": "final",
        "category": [
          {
            "coding": [
              {
                "system": "http://terminology.hl7.org/CodeSystem/observation-category",
                "code": "laboratory",
                "display": "Laboratory"
              }
            ]
          }
        ],
        "code": {
          "coding": [
            {
              "system": "http://loinc.org",
              "code": "43199-9",
              "display": "Norfentanyl [Presence] in Urine"
            }
          ],
          "text": "Norfentanyl [Presence] in Urine"
        },
        "subject": {
          "reference": "Patient/95de8c90-8159-40c2-b425-a323f23988e8"
        },
        "effectiveDateTime": "2021-12-03",
        "valueBoolean": true,
        "specimen": {
          "reference": "Specimen/33f9202a-a7fc-4b30-9d4b-7947306701df"
        }
      }
    },
    {
      "fullUrl": "Observation/5d3b36db-8c65-4b03-955f-f340b6efac95",
      "resource": {
        "resourceType": "Observation",
        "id": "5d3b36db-8c65-4b03-955f-f340b6efac95",
        "meta": {
          "profile": [
            "http://hl7.org/fhir/us/mdi/StructureDefinition/Observation-toxicology-lab-result"
          ]
        },
        "status": "final",
        "category": [
          {
            "coding": [
              {
                "system": "http://terminology.hl7.org/CodeSystem/observation-category",
                "code": "laboratory",
                "display": "Laboratory"
              }
            ]
          }
        ],
        "code": {
          "coding": [
            {
              "system": "http://loinc.org",
              "code": "12327-3",
              "display": "Ketamine [Presence] in Urine"
            }
          ],
          "text": "Ketamine [Presence] in Urine"
        },
        "subject": {
          "reference": "Patient/95de8c90-8159-40c2-b425-a323f23988e8"
        },
        "effectiveDateTime": "2021-12-03",
        "valueBoolean": true,
        "specimen": {
          "reference": "Specimen/33f9202a-a7fc-4b30-9d4b-7947306701df"
        }
      }
    },
    {
      "fullUrl": "Observation/6bf7b904-20c5-4b27-8967-2de0228085ec",
      "resource": {
        "resourceType": "Observation",
        "id": "6bf7b904-20c5-4b27-8967-2de0228085ec",
        "meta": {
          "profile": [
            "http://hl7.org/fhir/us/mdi/StructureDefinition/Observation-toxicology-lab-result"
          ]
        },
        "status": "final",
        "category": [
          {
            "coding": [
              {
                "system": "http://terminology.hl7.org/CodeSystem/observation-category",
                "code": "laboratory",
                "display": "Laboratory"
              }
            ]
          }
        ],
        "code": {
          "coding": [
            {
              "system": "http://loinc.org",
              "code": "12465-1",
              "display": "Ethanol [Mass/volume] in Vitreous fluid"
            }
          ],
          "text": "Ethanol [Mass/volume] in Vitreous fluid"
        },
        "subject": {
          "reference": "Patient/95de8c90-8159-40c2-b425-a323f23988e8"
        },
        "effectiveDateTime": "2021-12-03",
        "valueQuantity": {
          "value": 0.133,
          "unit": "g/dL",
          "system": "http://unitsofmeasure.org"
        },
        "specimen": {
          "reference": "Specimen/e9887995-33ad-4245-ac4f-a34022247ae9"
        }
      }
    }
  ]
}