{
  "resourceType": "Bundle",
  "meta": {
    "profile": [
      "http://cbsig.chai.gatech.edu/StructureDefinition/cbs-document-bundle"
    ]
  },
  "type": "document",
  "entry": [
    {
      "resource": {
        "resourceType": "Composition",
        "meta": {
          "profile": [
            "http://cbsig.chai.gatech.edu/StructureDefinition/cbs-composition"
          ]
        },
        "status": "final",
        "type": {
          "coding": [
            {
              "system": "http://loinc.org",
              "code": "55751-2"
            }
          ]
        },
        "subject": {
          "reference": "Patient/81756011-7f41-413f-aaf8-5c72415b9db9"
        },
        "date": "2014-03-02",
        "author": [
          {
            "reference": "Organization/cb205ed1-c8f0-477a-a640-493076332ccb"
          }
        ],
        "title": "Case Based Surveillance Composition",
        "section": [
          {
            "title": "Condition of Interest",
            "code": {
              "coding": [
                {
                  "system": "http://cbsig.chai.gatech.edu/CodeSystem/cbs-temp-code-system",
                  "code": "condition-of-interest",
                  "display": "Condition of Interest/Reportable Condition"
                }
              ]
            },
            "entry": [
              {
                "reference": "Condition/ba37f972-f0ce-4ed5-af19-1597f3295ff1"
              }
            ]
          },
          {
            "title": "History of Encounters (Hospitalizations)",
            "code": {
              "coding": [
                {
                  "system": "http://cbsig.chai.gatech.edu/CodeSystem/cbs-temp-code-system",
                  "code": "history-of-encounters",
                  "display": "History of Encounters (Hospitalizations)"
                }
              ]
            },
            "entry": [
              {
                "reference": "Encounter/4f283c01-7815-4ec0-ae2f-d342ff82afc2"
              }
            ]
          },
          {
            "title": "Case Notification Panel",
            "code": {
              "coding": [
                {
                  "system": "http://cbsig.chai.gatech.edu/CodeSystem/cbs-temp-code-system",
                  "code": "case-notification-panel",
                  "display": "Case Notification Panel"
                }
              ]
            },
            "entry": [
              {
                "reference": "Observation/5a847105-7685-4060-85d4-db763ed8ca73"
              }
            ]
          },
          {
            "title": "Reporting Entities",
            "code": {
              "coding": [
                {
                  "system": "http://cbsig.chai.gatech.edu/CodeSystem/cbs-temp-code-system",
                  "code": "reporting-entities",
                  "display": "Reporting Entities"
                }
              ]
            },
            "entry": [
              {
                "reference": "Organization/cb205ed1-c8f0-477a-a640-493076332ccb"
              }
            ]
          }
        ]
      }
    },
    {
      "resource": {
        "resourceType": "Patient",
        "id": "81756011-7f41-413f-aaf8-5c72415b9db9",
        "meta": {
          "profile": [
            "http://hl7.org/fhir/us/core/StructureDefinition/us-core-patient",
            "http://hl7.org/fhir/us/ecr/StructureDefinition/us-ph-patient",
            "http://cbsig.chai.gatech.edu/StructureDefinition/us-cbs-patient"
          ]
        },
        "extension": [
          {
            "extension": [
              {
                "url": "ombCategory",
                "valueCoding": {
                  "system": "urn:oid:2.16.840.1.113883.6.238",
                  "code": "2106-3",
                  "display": "White"
                }
              },
              {
                "url": "text",
                "valueString": "White"
              }
            ],
            "url": "http://hl7.org/fhir/us/core/StructureDefinition/us-core-race"
          },
          {
            "extension": [
              {
                "url": "ombCategory",
                "valueCoding": {
                  "system": "urn:oid:2.16.840.1.113883.6.238",
                  "code": "2186-5",
                  "display": "Not Hispanic or Latino"
                }
              },
              {
                "url": "detailed",
                "valueCoding": {
                  "system": "urn:oid:2.16.840.1.113883.6.238",
                  "code": "2186-5",
                  "display": "Not Hispanic or Latino"
                }
              },
              {
                "url": "text",
                "valueString": "Not Hispanic or Latino"
              }
            ],
            "url": "http://hl7.org/fhir/us/core/StructureDefinition/us-core-ethnicity"
          },
          {
            "url": "http://hl7.org/fhir/us/core/StructureDefinition/us-core-birthsex",
            "valueCode": "F"
          },
          {
            "url": "http://hl7.org/fhir/StructureDefinition/patient-birthPlace",
            "valueAddress": {
              "country": "USA"
            }
          },
          {
            "url": "http://hl7.org/fhir/StructureDefinition/patient-genderIdentity",
            "valueCodeableConcept": {
              "coding": [
                {
                  "system": "http://hl7.org/fhir/gender-identity",
                  "code": "female",
                  "display": "female"
                }
              ]
            }
          },
          {
            "extension": [
              {
                "url": "TribeName",
                "valueCoding": {
                  "system": "http://terminology.hl7.org/CodeSystem/v3-TribalEntityUS",
                  "code": "91",
                  "display": "Fort Mojave Indian Tribe of Arizona, California"
                }
              },
              {
                "url": "EnrolledTribeMember",
                "valueBoolean": true
              }
            ],
            "url": "http://hl7.org/fhir/us/ecr/StructureDefinition/us-ph-tribal-affiliation-extension"
          }
        ],
        "identifier": [
          {
            "use": "usual",
            "type": {
              "coding": [
                {
                  "system": "http://terminology.hl7.org/CodeSystem/v2-0203",
                  "code": "MR",
                  "display": "Medical Record Number"
                }
              ],
              "text": "Medical Record Number"
            },
            "system": "http://hospital.smarthealthit.org",
            "value": "1032702"
          }
        ],
        "active": true,
        "name": [
          {
            "family": "Everywoman",
            "given": [
              "Eve",
              "L"
            ]
          }
        ],
        "telecom": [
          {
            "system": "phone",
            "value": "1-(404)555-1212",
            "use": "home"
          },
          {
            "system": "email",
            "value": "mywork@gtri.org",
            "use": "work"
          }
        ],
        "gender": "female",
        "birthDate": "1974-11-24",
        "address": [
          {
            "use": "home",
            "line": [
              "5101 Peachtree St NE",
              null
            ],
            "_line": [
              null,
              {
                "extension": [
                  {
                    "url": "http://hl7.org/fhir/StructureDefinition/iso21090-ADXP-censusTract",
                    "valueString": "030500"
                  }
                ]
              }
            ],
            "city": "Atlanta",
            "state": "GA",
            "postalCode": "30302",
            "country": "US"
          }
        ]
      }
    },
    {
      "resource": {
        "resourceType": "Condition",
        "id": "ba37f972-f0ce-4ed5-af19-1597f3295ff1",
        "meta": {
          "profile": [
            "http://hl7.org/fhir/us/core/StructureDefinition/us-core-condition",
            "http://hl7.org/fhir/us/ecr/StructureDefinition/us-ph-condition",
            "http://cbsig.chai.gatech.edu/StructureDefinition/us-cbs-condition"
          ]
        },
        "extension": [
          {
            "url": "http://cbsig.chai.gatech.edu/StructureDefinition/cbs-case-class-status",
            "valueCodeableConcept": {
              "coding": [
                {
                  "system": "http://snomed.info/sct",
                  "code": "410605003",
                  "display": "Confirmed present"
                }
              ]
            }
          },
          {
            "url": "http://cbsig.chai.gatech.edu/StructureDefinition/cbs-illness-duration",
            "valueQuantity": {
              "value": 6,
              "unit": "day",
              "system": "http://unitsofmeasure.org",
              "code": "d"
            }
          },
          {
            "url": "http://hl7.org/fhir/StructureDefinition/condition-assertedDate",
            "valueDateTime": "2021-02-28"
          }
        ],
        "clinicalStatus": {
          "coding": [
            {
              "system": "http://terminology.hl7.org/CodeSystem/condition-clinical",
              "code": "inactive"
            }
          ]
        },
        "verificationStatus": {
          "coding": [
            {
              "system": "http://terminology.hl7.org/CodeSystem/condition-ver-status",
              "code": "confirmed"
            }
          ]
        },
        "code": {
          "coding": [
            {
              "system": "urn:oid:2.16.840.1.114222.4.5.277",
              "code": "11550",
              "display": "Hemolytic Uremic Syndrome"
            }
          ]
        },
        "subject": {
          "reference": "Patient/81756011-7f41-413f-aaf8-5c72415b9db9"
        },
        "onsetDateTime": "2021-02-28",
        "abatementDateTime": "2014-03-02"
      }
    },
    {
      "resource": {
        "resourceType": "Encounter",
        "id": "4f283c01-7815-4ec0-ae2f-d342ff82afc2",
        "meta": {
          "profile": [
            "http://cbsig.chai.gatech.edu/StructureDefinition/us-cbs-hospitalization"
          ]
        },
        "class": {
          "system": "http://terminology.hl7.org/CodeSystem/v3-ActCode",
          "code": "IMP",
          "display": "inpatient encounter"
        },
        "type": [
          {
            "coding": [
              {
                "system": "http://www.ama-assn.org/go/cpt",
                "code": "42628595",
                "display": "Inpatient Hospital"
              }
            ]
          }
        ],
        "subject": {
          "reference": "Patient/81756011-7f41-413f-aaf8-5c72415b9db9"
        },
        "period": {
          "start": "2014-02-26",
          "end": "2014-03-02"
        },
        "reasonReference": [
          {
            "reference": "Condition/ba37f972-f0ce-4ed5-af19-1597f3295ff1"
          }
        ]
      }
    },
    {
      "resource": {
        "resourceType": "Observation",
        "meta": {
          "profile": [
            "http://cbsig.chai.gatech.edu/StructureDefinition/cbs-cause-of-death"
          ]
        },
        "status": "final",
        "code": {
          "coding": [
            {
              "system": "http://loinc.org",
              "code": "79378-6"
            }
          ]
        },
        "subject": {
          "reference": "Patient/81756011-7f41-413f-aaf8-5c72415b9db9"
        },
        "focus": [
          {
            "reference": "Condition/ba37f972-f0ce-4ed5-af19-1597f3295ff1"
          }
        ]
      }
    },
    {
      "resource": {
        "resourceType": "Practitioner",
        "meta": {
          "profile": [
            "http://cbsig.chai.gatech.edu/StructureDefinition/cbs-person-reporting-to-cdc"
          ]
        },
        "name": [
          {
            "family": "Smith",
            "given": [
              "Sandra"
            ]
          }
        ],
        "telecom": [
          {
            "system": "email",
            "value": "ssmith@gmail.com"
          },
          {
            "system": "phone",
            "value": "444-321-1234"
          }
        ]
      }
    },
    {
      "resource": {
        "resourceType": "Organization",
        "id": "cb205ed1-c8f0-477a-a640-493076332ccb",
        "meta": {
          "profile": [
            "http://cbsig.chai.gatech.edu/StructureDefinition/us-cbs-reporting-source-organization",
            "http://hl7.org/fhir/us/ecr/StructureDefinition/us-ph-organization",
            "http://hl7.org/fhir/us/core/StructureDefinition/us-core-organization"
          ]
        },
        "active": true,
        "type": [
          {
            "coding": [
              {
                "system": "http://terminology.hl7.org/CodeSystem/v2-0406",
                "code": "H",
                "display": "Hospital"
              }
            ]
          }
        ],
        "name": "Reporting Source",
        "telecom": [
          {
            "system": "email",
            "value": "myorg@reportingagent.org",
            "use": "work"
          }
        ],
        "address": [
          {
            "postalCode": "77018"
          }
        ]
      }
    },
    {
      "resource": {
        "resourceType": "Observation",
        "id": "5a847105-7685-4060-85d4-db763ed8ca73",
        "meta": {
          "profile": [
            "http://cbsig.chai.gatech.edu/StructureDefinition/cbs-case-notification-panel"
          ]
        },
        "status": "final",
        "category": [
          {
            "coding": [
              {
                "system": "http://loinc.org",
                "code": "78000-7",
                "display": "Case notification panel [CDC.PHIN]"
              }
            ]
          }
        ],
        "code": {
          "coding": [
            {
              "system": "http://loinc.org",
              "code": "77974-4",
              "display": "Hospitalized"
            }
          ]
        },
        "subject": {
          "reference": "Patient/81756011-7f41-413f-aaf8-5c72415b9db9"
        },
        "hasMember": [
          {
            "reference": "Observation/6353298b-09e8-4d02-8fbd-c6393c7eeaac"
          },
          {
            "reference": "Observation/5f2b31e8-7461-48b4-a46f-07e16bab3251"
          },
          {
            "reference": "Observation/685d862d-5aa8-4a70-a159-8eec833d1bb1"
          },
          {
            "reference": "Observation/c37453ee-414d-4e1c-a7e8-d289bf34cc1d"
          },
          {
            "reference": "Observation/d813d4ee-b97b-42a5-b233-fd34cbbdd2da"
          },
          {
            "reference": "Observation/b24819b8-51b8-4397-a5be-46b60abbe93f"
          },
          {
            "reference": "Observation/3b2c7f2a-7193-4a32-8e46-399348ab93d8"
          },
          {
            "reference": "Observation/c3126820-c928-4c2e-a84e-7270fb27607a"
          },
          {
            "reference": "Observation/1ca6f11a-7c80-4dae-b7a7-5ac367b41056"
          },
          {
            "reference": "Observation/0920bc6f-ac5e-4cf7-8009-e9dd0586343b"
          },
          {
            "reference": "Observation/75628b95-aa27-47e0-8900-54c57b2c5e9e"
          },
          {
            "reference": "Observation/ad509331-3331-4307-a2d9-e1792cb55540"
          },
          {
            "reference": "Observation/7c387296-d824-4e3f-a82e-b973d816621f"
          },
          {
            "reference": "Observation/8d90cae2-ab7f-4f57-8837-ac6569ad2ee2"
          },
          {
            "reference": "Observation/c415522e-ef08-4d59-b9d2-849e4c86b1e3"
          },
          {
            "reference": "Observation/5751ad34-fc4f-437e-bfac-3278b5bda7d0"
          },
          {
            "reference": "Observation/7d7d6bfc-19bb-4c0a-8464-4ed73d582b79"
          }
        ]
      }
    },
    {
      "resource": {
        "resourceType": "Observation",
        "id": "ad509331-3331-4307-a2d9-e1792cb55540",
        "meta": {
          "profile": [
            "http://cbsig.chai.gatech.edu/StructureDefinition/cbs-mmwr"
          ]
        },
        "status": "final",
        "category": [
          {
            "coding": [
              {
                "system": "http://loinc.org",
                "code": "78000-7",
                "display": "Case notification panel [CDC.PHIN]"
              }
            ]
          }
        ],
        "code": {
          "coding": [
            {
              "system": "http://cbsig.chai.gatech.edu/CodeSystem/cbs-temp-code-system",
              "code": "MMWR"
            }
          ]
        },
        "subject": {
          "reference": "Patient/81756011-7f41-413f-aaf8-5c72415b9db9"
        },
        "component": [
          {
            "code": {
              "coding": [
                {
                  "system": "http://loinc.org",
                  "code": "77991-8"
                }
              ]
            },
            "valueInteger": 9
          },
          {
            "code": {
              "coding": [
                {
                  "system": "http://loinc.org",
                  "code": "77992-6"
                }
              ]
            },
            "valueInteger": 2014
          }
        ]
      }
    },
    {
      "resource": {
        "resourceType": "Observation",
        "id": "1ca6f11a-7c80-4dae-b7a7-5ac367b41056",
        "meta": {
          "profile": [
            "http://cbsig.chai.gatech.edu/StructureDefinition/cbs-case-notification-panel",
            "http://cbsig.chai.gatech.edu/StructureDefinition/cbs-exposure-observation"
          ]
        },
        "status": "final",
        "category": [
          {
            "coding": [
              {
                "system": "http://loinc.org",
                "code": "78000-7",
                "display": "Case notification panel [CDC.PHIN]"
              }
            ]
          }
        ],
        "code": {
          "coding": [
            {
              "system": "http://cbsig.chai.gatech.edu/CodeSystem/cbs-temp-code-system",
              "code": "Location-of-Exposure"
            }
          ]
        },
        "subject": {
          "reference": "Patient/81756011-7f41-413f-aaf8-5c72415b9db9"
        },
        "focus": [
          {
            "reference": "Condition/ba37f972-f0ce-4ed5-af19-1597f3295ff1"
          }
        ],
        "component": [
          {
            "code": {
              "coding": [
                {
                  "system": "http://loinc.org",
                  "code": "77984-3"
                }
              ]
            },
            "valueCodeableConcept": {
              "coding": [
                {
                  "system": "urn:iso:std:iso:3166",
                  "code": "USA",
                  "display": "United States of America"
                }
              ]
            }
          },
          {
            "code": {
              "coding": [
                {
                  "system": "http://loinc.org",
                  "code": "77985-0"
                }
              ]
            },
            "valueCodeableConcept": {
              "coding": [
                {
                  "system": "urn:oid:2.16.840.1.113883.6.92",
                  "code": "48",
                  "display": "Texas"
                }
              ]
            }
          },
          {
            "code": {
              "coding": [
                {
                  "system": "http://loinc.org",
                  "code": "77986-8"
                }
              ]
            },
            "valueString": "Houston"
          },
          {
            "code": {
              "coding": [
                {
                  "system": "http://loinc.org",
                  "code": "77987-6"
                }
              ]
            },
            "valueString": "Harris"
          }
        ]
      }
    },
    {
      "resource": {
        "resourceType": "Observation",
        "id": "0920bc6f-ac5e-4cf7-8009-e9dd0586343b",
        "meta": {
          "profile": [
            "http://cbsig.chai.gatech.edu/StructureDefinition/cbs-case-notification-panel",
            "http://cbsig.chai.gatech.edu/StructureDefinition/cbs-immediate-nnc"
          ]
        },
        "status": "final",
        "category": [
          {
            "coding": [
              {
                "system": "http://loinc.org",
                "code": "78000-7",
                "display": "Case notification panel [CDC.PHIN]"
              }
            ]
          }
        ],
        "code": {
          "coding": [
            {
              "system": "http://loinc.org",
              "code": "77965-2",
              "display": "Immediate National Notifiable Condition"
            }
          ]
        },
        "subject": {
          "reference": "Patient/81756011-7f41-413f-aaf8-5c72415b9db9"
        },
        "valueCodeableConcept": {
          "coding": [
            {
              "system": "urn:oid:2.16.840.1.113883.12.136",
              "code": "N",
              "display": "No"
            }
          ]
        }
      }
    },
    {
      "resource": {
        "resourceType": "Observation",
        "id": "5751ad34-fc4f-437e-bfac-3278b5bda7d0",
        "meta": {
          "profile": [
            "http://cbsig.chai.gatech.edu/StructureDefinition/cbs-case-notification-panel",
            "http://cbsig.chai.gatech.edu/StructureDefinition/cbs-reporting-state"
          ]
        },
        "status": "final",
        "category": [
          {
            "coding": [
              {
                "system": "http://loinc.org",
                "code": "78000-7",
                "display": "Case notification panel [CDC.PHIN]"
              }
            ]
          }
        ],
        "code": {
          "coding": [
            {
              "system": "http://loinc.org",
              "code": "77966-0",
              "display": "Reporting State"
            }
          ]
        },
        "subject": {
          "reference": "Patient/81756011-7f41-413f-aaf8-5c72415b9db9"
        },
        "valueCodeableConcept": {
          "coding": [
            {
              "system": "urn:oid:2.16.840.1.113883.6.92",
              "code": "48",
              "display": "Texas"
            }
          ]
        }
      }
    },
    {
      "resource": {
        "resourceType": "Observation",
        "id": "c415522e-ef08-4d59-b9d2-849e4c86b1e3",
        "meta": {
          "profile": [
            "http://cbsig.chai.gatech.edu/StructureDefinition/cbs-case-notification-panel",
            "http://cbsig.chai.gatech.edu/StructureDefinition/cbs-reporting-county"
          ]
        },
        "status": "final",
        "category": [
          {
            "coding": [
              {
                "system": "http://loinc.org",
                "code": "78000-7",
                "display": "Case notification panel [CDC.PHIN]"
              }
            ]
          }
        ],
        "code": {
          "coding": [
            {
              "system": "http://loinc.org",
              "code": "77967-8",
              "display": "Reporting County"
            }
          ]
        },
        "subject": {
          "reference": "Patient/81756011-7f41-413f-aaf8-5c72415b9db9"
        },
        "valueCodeableConcept": {
          "coding": [
            {
              "system": "urn:oid:2.16.840.1.113883.6.93",
              "code": "48201",
              "display": "Harris"
            }
          ]
        }
      }
    },
    {
      "resource": {
        "resourceType": "Observation",
        "id": "7c387296-d824-4e3f-a82e-b973d816621f",
        "meta": {
          "profile": [
            "http://cbsig.chai.gatech.edu/StructureDefinition/cbs-case-notification-panel",
            "http://cbsig.chai.gatech.edu/StructureDefinition/cbs-national-reporting-jurisdiction"
          ]
        },
        "status": "final",
        "category": [
          {
            "coding": [
              {
                "system": "http://loinc.org",
                "code": "78000-7",
                "display": "Case notification panel [CDC.PHIN]"
              }
            ]
          }
        ],
        "code": {
          "coding": [
            {
              "system": "http://loinc.org",
              "code": "77968-6",
              "display": "National Reporting Jurisdiction"
            }
          ]
        },
        "subject": {
          "reference": "Patient/81756011-7f41-413f-aaf8-5c72415b9db9"
        },
        "valueCodeableConcept": {
          "coding": [
            {
              "system": "urn:oid:2.16.840.1.113883.6.92",
              "code": "48",
              "display": "Texas"
            }
          ]
        }
      }
    },
    {
      "resource": {
        "resourceType": "Observation",
        "id": "75628b95-aa27-47e0-8900-54c57b2c5e9e",
        "meta": {
          "profile": [
            "http://cbsig.chai.gatech.edu/StructureDefinition/cbs-case-notification-panel",
            "http://cbsig.chai.gatech.edu/StructureDefinition/cbs-jurisdiction-code"
          ]
        },
        "status": "final",
        "category": [
          {
            "coding": [
              {
                "system": "http://loinc.org",
                "code": "78000-7",
                "display": "Case notification panel [CDC.PHIN]"
              }
            ]
          }
        ],
        "code": {
          "coding": [
            {
              "system": "http://loinc.org",
              "code": "77969-4",
              "display": "Jurisdiction Code"
            }
          ]
        },
        "subject": {
          "reference": "Patient/81756011-7f41-413f-aaf8-5c72415b9db9"
        },
        "valueString": "S01"
      }
    },
    {
      "resource": {
        "resourceType": "Observation",
        "id": "b24819b8-51b8-4397-a5be-46b60abbe93f",
        "meta": {
          "profile": [
            "http://cbsig.chai.gatech.edu/StructureDefinition/cbs-case-notification-panel",
            "http://cbsig.chai.gatech.edu/StructureDefinition/cbs-date-initial-report"
          ]
        },
        "status": "final",
        "category": [
          {
            "coding": [
              {
                "system": "http://loinc.org",
                "code": "78000-7",
                "display": "Case notification panel [CDC.PHIN]"
              }
            ]
          }
        ],
        "code": {
          "coding": [
            {
              "system": "http://loinc.org",
              "code": "77970-2",
              "display": "Date of Initial Report"
            }
          ]
        },
        "subject": {
          "reference": "Patient/81756011-7f41-413f-aaf8-5c72415b9db9"
        },
        "valueDateTime": "2022-01-30"
      }
    },
    {
      "resource": {
        "resourceType": "Observation",
        "id": "3b2c7f2a-7193-4a32-8e46-399348ab93d8",
        "meta": {
          "profile": [
            "http://cbsig.chai.gatech.edu/StructureDefinition/cbs-case-notification-panel",
            "http://cbsig.chai.gatech.edu/StructureDefinition/cbs-earliest-date-reported-to-county"
          ]
        },
        "status": "final",
        "category": [
          {
            "coding": [
              {
                "system": "http://loinc.org",
                "code": "78000-7",
                "display": "Case notification panel [CDC.PHIN]"
              }
            ]
          }
        ],
        "code": {
          "coding": [
            {
              "system": "http://loinc.org",
              "code": "77972-8",
              "display": "Earliest Date Reported to County"
            }
          ]
        },
        "subject": {
          "reference": "Patient/81756011-7f41-413f-aaf8-5c72415b9db9"
        },
        "valueDateTime": "2022-01-30"
      }
    },
    {
      "resource": {
        "resourceType": "Observation",
        "id": "c3126820-c928-4c2e-a84e-7270fb27607a",
        "meta": {
          "profile": [
            "http://cbsig.chai.gatech.edu/StructureDefinition/cbs-case-notification-panel",
            "http://cbsig.chai.gatech.edu/StructureDefinition/cbs-earliest-date-reported-to-state"
          ]
        },
        "status": "final",
        "category": [
          {
            "coding": [
              {
                "system": "http://loinc.org",
                "code": "78000-7",
                "display": "Case notification panel [CDC.PHIN]"
              }
            ]
          }
        ],
        "code": {
          "coding": [
            {
              "system": "http://loinc.org",
              "code": "77973-6",
              "display": "Earliest Date Reported to State"
            }
          ]
        },
        "subject": {
          "reference": "Patient/81756011-7f41-413f-aaf8-5c72415b9db9"
        },
        "valueDateTime": "2021-01-30"
      }
    },
    {
      "resource": {
        "resourceType": "Observation",
        "id": "685d862d-5aa8-4a70-a159-8eec833d1bb1",
        "meta": {
          "profile": [
            "http://cbsig.chai.gatech.edu/StructureDefinition/cbs-case-notification-panel",
            "http://cbsig.chai.gatech.edu/StructureDefinition/cbs-investigation-start-date"
          ]
        },
        "status": "final",
        "category": [
          {
            "coding": [
              {
                "system": "http://loinc.org",
                "code": "78000-7",
                "display": "Case notification panel [CDC.PHIN]"
              }
            ]
          }
        ],
        "code": {
          "coding": [
            {
              "system": "http://loinc.org",
              "code": "77979-3",
              "display": "Case Investigation Start Date"
            }
          ]
        },
        "subject": {
          "reference": "Patient/81756011-7f41-413f-aaf8-5c72415b9db9"
        },
        "valueDateTime": "2014-02-25"
      }
    },
    {
      "resource": {
        "resourceType": "Observation",
        "id": "c37453ee-414d-4e1c-a7e8-d289bf34cc1d",
        "meta": {
          "profile": [
            "http://cbsig.chai.gatech.edu/StructureDefinition/cbs-case-notification-panel",
            "http://cbsig.chai.gatech.edu/StructureDefinition/cbs-case-outbreak"
          ]
        },
        "status": "final",
        "category": [
          {
            "coding": [
              {
                "system": "http://loinc.org",
                "code": "78000-7",
                "display": "Case notification panel [CDC.PHIN]"
              }
            ]
          }
        ],
        "code": {
          "coding": [
            {
              "system": "http://cbsig.chai.gatech.edu/CodeSystem/cbs-temp-code-system",
              "code": "case-outbreak",
              "display": "Case Outbreak Name and Indicator"
            }
          ]
        },
        "subject": {
          "reference": "Patient/81756011-7f41-413f-aaf8-5c72415b9db9"
        },
        "component": [
          {
            "code": {
              "coding": [
                {
                  "system": "http://loinc.org",
                  "code": "77981-9",
                  "display": "Case Outbreak Name"
                }
              ]
            },
            "valueString": "HANSENOUTB1"
          },
          {
            "code": {
              "coding": [
                {
                  "system": "http://loinc.org",
                  "code": "77980-1",
                  "display": "Case is associated with a known outbreak"
                }
              ]
            },
            "valueCodeableConcept": {
              "coding": [
                {
                  "system": "urn:oid:2.16.840.1.113883.12.136",
                  "code": "Y",
                  "display": "Yes"
                }
              ]
            }
          }
        ]
      }
    },
    {
      "resource": {
        "resourceType": "Observation",
        "id": "5f2b31e8-7461-48b4-a46f-07e16bab3251",
        "meta": {
          "profile": [
            "http://cbsig.chai.gatech.edu/StructureDefinition/cbs-case-notification-panel",
            "http://cbsig.chai.gatech.edu/StructureDefinition/cbs-binational-reporting-criteria"
          ]
        },
        "status": "final",
        "category": [
          {
            "coding": [
              {
                "system": "http://loinc.org",
                "code": "78000-7",
                "display": "Case notification panel [CDC.PHIN]"
              }
            ]
          }
        ],
        "code": {
          "coding": [
            {
              "system": "http://loinc.org",
              "code": "77988-4",
              "display": "Binational reporting criteria [CDC.PHIN]"
            }
          ]
        },
        "subject": {
          "reference": "Patient/81756011-7f41-413f-aaf8-5c72415b9db9"
        },
        "valueCodeableConcept": {
          "coding": [
            {
              "system": "urn:oid:2.16.840.1.114222.4.5.274",
              "code": "PHC1140",
              "display": "Exposure to suspected product from Canada or Mexico"
            }
          ]
        }
      }
    },
    {
      "resource": {
        "resourceType": "Observation",
        "id": "7d7d6bfc-19bb-4c0a-8464-4ed73d582b79",
        "meta": {
          "profile": [
            "http://cbsig.chai.gatech.edu/StructureDefinition/cbs-case-notification-panel",
            "http://cbsig.chai.gatech.edu/StructureDefinition/cbs-transmission-mode"
          ]
        },
        "status": "final",
        "category": [
          {
            "coding": [
              {
                "system": "http://loinc.org",
                "code": "78000-7",
                "display": "Case notification panel [CDC.PHIN]"
              }
            ]
          }
        ],
        "code": {
          "coding": [
            {
              "system": "http://loinc.org",
              "code": "77989-2",
              "display": "Disease transmission mode"
            }
          ]
        },
        "subject": {
          "reference": "Patient/81756011-7f41-413f-aaf8-5c72415b9db9"
        },
        "valueCodeableConcept": {
          "coding": [
            {
              "system": "http://snomed.info/sct",
              "code": "416086007",
              "display": "Food-borne transmission"
            }
          ]
        }
      }
    },
    {
      "resource": {
        "resourceType": "Observation",
        "id": "d813d4ee-b97b-42a5-b233-fd34cbbdd2da",
        "meta": {
          "profile": [
            "http://cbsig.chai.gatech.edu/StructureDefinition/cbs-case-notification-panel",
            "http://cbsig.chai.gatech.edu/StructureDefinition/cbs-date-reported-to-phd"
          ]
        },
        "status": "final",
        "category": [
          {
            "coding": [
              {
                "system": "http://loinc.org",
                "code": "78000-7",
                "display": "Case notification panel [CDC.PHIN]"
              }
            ]
          }
        ],
        "code": {
          "coding": [
            {
              "system": "http://loinc.org",
              "code": "77995-9",
              "display": "Date of first report to public health department"
            }
          ]
        },
        "subject": {
          "reference": "Patient/81756011-7f41-413f-aaf8-5c72415b9db9"
        },
        "valueDateTime": "2014-02-25"
      }
    },
    {
      "resource": {
        "resourceType": "Observation",
        "id": "8d90cae2-ab7f-4f57-8837-ac6569ad2ee2",
        "meta": {
          "profile": [
            "http://cbsig.chai.gatech.edu/StructureDefinition/cbs-case-notification-panel",
            "http://cbsig.chai.gatech.edu/StructureDefinition/cbs-pregnancy-status"
          ]
        },
        "status": "final",
        "category": [
          {
            "coding": [
              {
                "system": "http://loinc.org",
                "code": "78000-7",
                "display": "Case notification panel [CDC.PHIN]"
              }
            ]
          }
        ],
        "code": {
          "coding": [
            {
              "system": "http://loinc.org",
              "code": "77996-7",
              "display": "Pregnancy status at time of illness or condition"
            }
          ]
        },
        "subject": {
          "reference": "Patient/81756011-7f41-413f-aaf8-5c72415b9db9"
        },
        "valueCodeableConcept": {
          "coding": [
            {
              "system": "urn:oid:2.16.840.1.113883.12.136",
              "code": "N",
              "display": "No"
            }
          ]
        }
      }
    },
    {
      "resource": {
        "resourceType": "Observation",
        "id": "6353298b-09e8-4d02-8fbd-c6393c7eeaac",
        "meta": {
          "profile": [
            "http://cbsig.chai.gatech.edu/StructureDefinition/cbs-case-notification-panel",
            "http://cbsig.chai.gatech.edu/StructureDefinition/cbs-age-at-investigation"
          ]
        },
        "status": "final",
        "category": [
          {
            "coding": [
              {
                "system": "http://loinc.org",
                "code": "78000-7",
                "display": "Case notification panel [CDC.PHIN]"
              }
            ]
          }
        ],
        "code": {
          "coding": [
            {
              "system": "http://loinc.org",
              "code": "77998-3",
              "display": "Age at time of case investigation"
            }
          ]
        },
        "subject": {
          "reference": "Patient/81756011-7f41-413f-aaf8-5c72415b9db9"
        },
        "valueQuantity": {
          "value": 49,
          "unit": "year",
          "system": "http://unitsofmeasure.org",
          "code": "a"
        }
      }
    },
    {
      "resource": {
        "resourceType": "Immunization",
        "meta": {
          "profile": [
            "http://hl7.org/fhir/us/core/StructureDefinition/us-core-immunization",
            "http://cbsig.chai.gatech.edu/StructureDefinition/us-cbs-immunization"
          ]
        },
        "status": "completed",
        "vaccineCode": {
          "coding": [
            {
              "system": "urn:oid:2.16.840.1.113883.12.292",
              "code": "05",
              "display": "measles virus vaccine"
            }
          ]
        },
        "patient": {
          "reference": "Patient/81756011-7f41-413f-aaf8-5c72415b9db9"
        },
        "occurrenceDateTime": "2014-02-25",
        "reportOrigin": {
          "coding": [
            {
              "system": "urn:oid:2.16.840.1.114222.4.5.293",
              "code": "07",
              "display": "Historical information - from school record"
            }
          ]
        }
      }
    },
    {
      "resource": {
        "resourceType": "DiagnosticReport",
        "meta": {
          "profile": [
            "http://hl7.org/fhir/us/core/StructureDefinition/us-core-diagnosticreport-lab",
            "http://cbsig.chai.gatech.edu/StructureDefinition/us-cbs-lab-diagnosticreport"
          ]
        },
        "category": [
          {
            "coding": [
              {
                "system": "http://terminology.hl7.org/CodeSystem/v2-0074",
                "code": "LAB",
                "display": "Laboratory"
              }
            ]
          }
        ],
        "subject": {
          "reference": "Patient/81756011-7f41-413f-aaf8-5c72415b9db9"
        },
        "_effectiveDateTime": {
          "extension": [
            {
              "url": "http://hl7.org/fhir/StructureDefinition/data-absent-reason",
              "valueCode": "masked"
            }
          ]
        },
        "result": [
          {
            "reference": "Observation/8d4649d5-19f1-4b59-8fed-7e389fbd2522"
          }
        ]
      }
    },
    {
      "resource": {
        "resourceType": "Observation",
        "id": "8d4649d5-19f1-4b59-8fed-7e389fbd2522",
        "meta": {
          "profile": [
            "http://hl7.org/fhir/us/core/StructureDefinition/us-core-observation-lab",
            "http://cbsig.chai.gatech.edu/StructureDefinition/us-cbs-lab-observation"
          ]
        },
        "status": "final",
        "category": [
          {
            "coding": [
              {
                "system": "http://terminology.hl7.org/CodeSystem/observation-category",
                "code": "laboratory",
                "display": "Laboratory"
              }
            ]
          }
        ],
        "code": {
          "coding": [
            {
              "system": "urn:oid:2.16.840.1.114222.4.5.232",
              "code": "LAB723",
              "display": "DNA Sequencing"
            }
          ]
        },
        "subject": {
          "reference": "Patient/81756011-7f41-413f-aaf8-5c72415b9db9"
        },
        "valueCodeableConcept": {
          "coding": [
            {
              "system": "http://snomed.info/sct",
              "code": "10828004",
              "display": "Positive"
            }
          ]
        },
        "method": {
          "coding": [
            {
              "code": "D1D2",
              "display": "D1/D2"
            }
          ]
        }
      }
    }
  ]
}