{
    "resourceType": "Bundle",
    "id": "de98be17-5878-4a14-88eb-1de222957e22",
    "meta": {
        "profile": [
            "http://hl7.org/fhir/us/mdi/StructureDefinition/Bundle-document-mdi-and-edrs"
        ]
    },
    "identifier": {
        "system": "urn:ietf:rfc:3986",
        "value": "933dde44f7664b03a20b6324f23986c0"
    },
    "type": "document",
    "timestamp": "2024-05-06T19:59:55.7443014+00:00",
    "entry": [
        {
            "fullUrl": "urn:uuid:dffc51ff-4d1f-47a8-a0f3-1ac57b125c94",
            "resource": {
                "resourceType": "Composition",
                "id": "dffc51ff-4d1f-47a8-a0f3-1ac57b125c94",
                "meta": {
                    "profile": [
                        "http://hl7.org/fhir/us/vrdr/StructureDefinition/VRDR-Death-Certificate"
                    ]
                },
                "identifier": {
                    "value": "24-00126"
                },
                "status": "final",
                "type": {
                    "coding": [
                        {
                            "system": "http://loinc.org",
                            "code": "64297-5",
                            "display": "Death certificate"
                        }
                    ]
                },
                "subject": {
                    "reference": "urn:uuid:c891509b-4ef1-43d3-aeb2-e18097892763"
                },
                "date": "2024-05-06",
                "author": [
                    {
                        "reference": "urn:uuid:97fde555-5da5-4d1b-8e24-58f2c87dfa72"
                    }
                ],
                "title": "MDI to EDRS Composition",
                "attester": [
                    {
                        "mode": "professional",
                        "party": {
                            "reference": "urn:uuid:97fde555-5da5-4d1b-8e24-58f2c87dfa72"
                        }
                    }
                ],
                "section": [
                    {
                        "title": "Circumstances Section",
                        "code": {
                            "coding": [
                                {
                                    "system": "http://hl7.org/fhir/us/mdi/CodeSystem/CodeSystem-vr-codes",
                                    "code": "circumstances"
                                }
                            ]
                        },
                        "entry": [
                            {
                                "reference": "urn:uuid:df8b300b-47d0-46e6-893e-2d5cc029e8f7"
                            },
                            {
                                "reference": "urn:uuid:8e71edb4-5415-4cbb-806c-3303f1a16322"
                            },
                            {
                                "reference": "urn:uuid:8da6ee5c-7a8b-415c-bd10-56f6ddcaec5e"
                            },
                            {
                                "reference": "urn:uuid:8a054c36-50cb-4907-9655-ea48b96c8ab5"
                            },
                            {
                                "reference": "urn:uuid:424ce99b-7f18-4546-aead-851613583f02"
                            },
                            {
                                "reference": "urn:uuid:f27f3b01-ec24-4d96-bae0-5a00b5971991"
                            },
                            {
                                "reference": "urn:uuid:18b5296e-d266-4d78-8582-7c0843fa909c"
                            },
                            {
                                "reference": "urn:uuid:513f7c29-6809-4509-acfd-c72aee460cd0"
                            }
                        ]
                    },
                    {
                        "title": "Jurisdiction Section",
                        "code": {
                            "coding": [
                                {
                                    "system": "http://hl7.org/fhir/us/mdi/CodeSystem/CodeSystem-vr-codes",
                                    "code": "jurisdiction"
                                }
                            ]
                        },
                        "entry": [
                            {
                                "reference": "urn:uuid:d67c945c-dbf2-4a02-b191-33627223ef71"
                            },
                            {
                                "reference": "urn:uuid:bd82239a-614b-415d-a8e7-e0b12e025db5"
                            }
                        ]
                    },
                    {
                        "title": "Cause and Manner of Death Section",
                        "code": {
                            "coding": [
                                {
                                    "system": "http://hl7.org/fhir/us/mdi/CodeSystem/CodeSystem-vr-codes",
                                    "code": "cause-manner"
                                }
                            ]
                        },
                        "entry": [
                            {
                                "reference": "urn:uuid:283054ba-1b08-4a49-8fa3-037b7f722a25"
                            },
                            {
                                "reference": "urn:uuid:6be2abca-8859-44d4-b9f3-f330377a8edd"
                            }
                        ]
                    }
                ]
            }
        },
        {
            "fullUrl": "urn:uuid:c891509b-4ef1-43d3-aeb2-e18097892763",
            "resource": {
                "resourceType": "Patient",
                "id": "c891509b-4ef1-43d3-aeb2-e18097892763",
                "meta": {
                    "profile": [
                        "http://hl7.org/fhir/us/vrdr/StructureDefinition/VRDR-Decedent"
                    ]
                },
                "extension": [
                    {
                        "extension": [
                            {
                                "url": "ombCategory",
                                "valueCoding": {
                                    "system": "http://terminology.hl7.org/CodeSystem/v3-NullFlavor",
                                    "code": "UNK",
                                    "display": "Unknown"
                                }
                            },
                            {
                                "url": "text",
                                "valueString": "Unknown"
                            }
                        ],
                        "url": "http://hl7.org/fhir/us/core/StructureDefinition/us-core-race"
                    }
                ],
                "identifier": [
                    {
                        "type": {
                            "coding": [
                                {
                                    "code": "BR",
                                    "display": "Social Beneficiary Identifier"
                                }
                            ]
                        },
                        "system": "http://hl7.org/fhir/sid/us-ssn",
                        "value": "123456789"
                    }
                ],
                "name": [
                    {
                        "use": "official",
                        "family": "Doe",
                        "given": [
                            "John"
                        ]
                    }
                ],
                "gender": "male",
                "birthDate": "1928-02-24"
            }
        },
        {
            "fullUrl": "urn:uuid:97fde555-5da5-4d1b-8e24-58f2c87dfa72",
            "resource": {
                "resourceType": "Practitioner",
                "id": "97fde555-5da5-4d1b-8e24-58f2c87dfa72",
                "meta": {
                    "profile": [
                        "http://hl7.org/fhir/us/vrdr/StructureDefinition/VRDR-Certifier"
                    ]
                }
            }
        },
        {
            "fullUrl": "urn:uuid:d67c945c-dbf2-4a02-b191-33627223ef71",
            "resource": {
                "resourceType": "Procedure",
                "id": "d67c945c-dbf2-4a02-b191-33627223ef71",
                "meta": {
                    "profile": [
                        "http://hl7.org/fhir/us/vrdr/StructureDefinition/VRDR-Death-Certification"
                    ]
                },
                "status": "completed",
                "category": {
                    "coding": [
                        {
                            "system": "http://snomed.info/sct",
                            "code": "103693007",
                            "display": "Diagnostic procedure"
                        }
                    ]
                },
                "code": {
                    "coding": [
                        {
                            "system": "http://snomed.info/sct",
                            "code": "308646001",
                            "display": "Death certification"
                        }
                    ]
                },
                "subject": {
                    "reference": "urn:uuid:c891509b-4ef1-43d3-aeb2-e18097892763"
                },
                "performer": [
                    {
                        "actor": {
                            "reference": "urn:uuid:97fde555-5da5-4d1b-8e24-58f2c87dfa72"
                        }
                    }
                ]
            }
        },
        {
            "fullUrl": "urn:uuid:283054ba-1b08-4a49-8fa3-037b7f722a25",
            "resource": {
                "resourceType": "List",
                "id": "283054ba-1b08-4a49-8fa3-037b7f722a25",
                "meta": {
                    "profile": [
                        "http://hl7.org/fhir/us/vrdr/StructureDefinition/VRDR-Cause-of-Death-Pathway"
                    ]
                },
                "status": "current",
                "mode": "snapshot",
                "source": {
                    "reference": "urn:uuid:97fde555-5da5-4d1b-8e24-58f2c87dfa72"
                },
                "orderedBy": {
                    "coding": [
                        {
                            "code": "priority"
                        }
                    ]
                },
                "entry": [
                    {
                        "item": {
                            "reference": "urn:uuid:83da7d5f-fe47-4eba-a251-9208b98133dc"
                        }
                    },
                    {
                        "item": {
                            "reference": "urn:uuid:9eedc2bb-2e95-445f-a8c6-d7ab658a6255"
                        }
                    }
                ]
            }
        },
        {
            "fullUrl": "urn:uuid:bd82239a-614b-415d-a8e7-e0b12e025db5",
            "resource": {
                "resourceType": "Observation",
                "id": "bd82239a-614b-415d-a8e7-e0b12e025db5",
                "meta": {
                    "profile": [
                        "http://hl7.org/fhir/us/vrdr/StructureDefinition/VRDR-Death-Date"
                    ]
                },
                "status": "final",
                "code": {
                    "coding": [
                        {
                            "system": "urn:oid:2.16.840.1.113883.6.1",
                            "code": "81956-5",
                            "display": "Date and time of death"
                        }
                    ]
                },
                "subject": {
                    "reference": "urn:uuid:c891509b-4ef1-43d3-aeb2-e18097892763"
                },
                "effectiveDateTime": "2024-05-01T00:00:00+00:00",
                "performer": [
                    {
                        "reference": "urn:uuid:ddd1f8a1-8990-457f-9931-a0d47af56971"
                    }
                ],
                "method": {
                    "coding": [
                        {
                            "system": "urn:oid:2.16.840.1.113883.6.96",
                            "code": "414135002",
                            "display": "Actual"
                        }
                    ]
                }
            }
        },
        {
            "fullUrl": "urn:uuid:df8b300b-47d0-46e6-893e-2d5cc029e8f7",
            "resource": {
                "resourceType": "Location",
                "id": "df8b300b-47d0-46e6-893e-2d5cc029e8f7",
                "meta": {
                    "profile": [
                        "http://hl7.org/fhir/us/vrdr/StructureDefinition/VRDR-death-location"
                    ]
                }
            }
        },
        {
            "fullUrl": "urn:uuid:6be2abca-8859-44d4-b9f3-f330377a8edd",
            "resource": {
                "resourceType": "Observation",
                "id": "6be2abca-8859-44d4-b9f3-f330377a8edd",
                "meta": {
                    "profile": [
                        "http://hl7.org/fhir/us/vrdr/StructureDefinition/VRDR-Manner-of-Death"
                    ]
                },
                "status": "final",
                "code": {
                    "coding": [
                        {
                            "system": "http://loinc.org",
                            "code": "69449-7",
                            "display": "Manner of death"
                        }
                    ]
                },
                "subject": {
                    "reference": "urn:uuid:c891509b-4ef1-43d3-aeb2-e18097892763"
                },
                "performer": [
                    {
                        "reference": "urn:uuid:97fde555-5da5-4d1b-8e24-58f2c87dfa72"
                    }
                ],
                "valueCodeableConcept": {
                    "coding": [
                        {
                            "system": "http://snomed.info/sct",
                            "code": "7878000"
                        }
                    ],
                    "text": "Accident"
                }
            }
        },
        {
            "fullUrl": "urn:uuid:8e71edb4-5415-4cbb-806c-3303f1a16322",
            "resource": {
                "resourceType": "Observation",
                "id": "8e71edb4-5415-4cbb-806c-3303f1a16322",
                "meta": {
                    "profile": [
                        "http://example.org/clark-example-ig/NVDRS-Firearm"
                    ]
                },
                "status": "final",
                "category": [
                    {
                        "coding": [
                            {
                                "system": "http://example.org/clark-example-ig/Custom-Codesystem-Example",
                                "code": "circumstances",
                                "display": "Circumstances"
                            }
                        ],
                        "text": "Circumstances"
                    }
                ],
                "code": {
                    "coding": [
                        {
                            "system": "http://example.org/clark-example-ig/Custom-Codesystem-Example",
                            "code": "firearm",
                            "display": "Details on Firearm"
                        }
                    ],
                    "text": "Details on Firearm"
                }
            }
        },
        {
            "fullUrl": "urn:uuid:8da6ee5c-7a8b-415c-bd10-56f6ddcaec5e",
            "resource": {
                "resourceType": "Observation",
                "id": "8da6ee5c-7a8b-415c-bd10-56f6ddcaec5e",
                "meta": {
                    "profile": [
                        "http://hl7.org/fhir/us/mdi/StructureDefinition/Observation-toxicology-lab-result"
                    ]
                },
                "status": "final",
                "category": [
                    {
                        "coding": [
                            {
                                "system": "http://terminology.hl7.org/CodeSystem/observation-category",
                                "code": "laboratory",
                                "display": "Laboratory"
                            }
                        ],
                        "text": "Laboratory"
                    }
                ],
                "code": {
                    "coding": [
                        {
                            "system": "http://example.org/clark-example-ig/Custom-Codesystem-Example",
                            "code": "laboratory",
                            "display": "Laboratory"
                        }
                    ],
                    "text": "Laboratory"
                },
                "subject": {
                    "reference": "urn:uuid:c891509b-4ef1-43d3-aeb2-e18097892763"
                }
            }
        },
        {
            "fullUrl": "urn:uuid:8a054c36-50cb-4907-9655-ea48b96c8ab5",
            "resource": {
                "resourceType": "Observation",
                "id": "8a054c36-50cb-4907-9655-ea48b96c8ab5",
                "meta": {
                    "profile": [
                        "http://hl7.org/fhir/us/vrdr/StructureDefinition/VRDR-Decedent-Age"
                    ]
                },
                "status": "final",
                "code": {
                    "coding": [
                        {
                            "system": "http://loinc.org",
                            "code": "30525-0",
                            "display": "Age"
                        }
                    ]
                },
                "subject": {
                    "reference": "urn:uuid:c891509b-4ef1-43d3-aeb2-e18097892763"
                },
                "valueQuantity": {
                    "value": 96,
                    "unit": "a"
                }
            }
        },
        {
            "fullUrl": "urn:uuid:83da7d5f-fe47-4eba-a251-9208b98133dc",
            "resource": {
                "resourceType": "Condition",
                "id": "83da7d5f-fe47-4eba-a251-9208b98133dc",
                "meta": {
                    "profile": [
                        "http://hl7.org/fhir/us/vrdr/StructureDefinition/VRDR-Cause-Of-Death-Condition"
                    ]
                },
                "code": {
                    "text": "Asphyxiation"
                },
                "subject": {
                    "reference": "urn:uuid:c891509b-4ef1-43d3-aeb2-e18097892763"
                },
                "onsetString": "Minutes",
                "asserter": {
                    "reference": "urn:uuid:97fde555-5da5-4d1b-8e24-58f2c87dfa72"
                }
            }
        },
        {
            "fullUrl": "urn:uuid:9eedc2bb-2e95-445f-a8c6-d7ab658a6255",
            "resource": {
                "resourceType": "Condition",
                "id": "9eedc2bb-2e95-445f-a8c6-d7ab658a6255",
                "meta": {
                    "profile": [
                        "http://hl7.org/fhir/us/vrdr/StructureDefinition/VRDR-Cause-Of-Death-Condition"
                    ]
                },
                "code": {
                    "text": "Airway Occlusion - Internal"
                },
                "subject": {
                    "reference": "urn:uuid:c891509b-4ef1-43d3-aeb2-e18097892763"
                },
                "onsetString": "Minutes",
                "asserter": {
                    "reference": "urn:uuid:97fde555-5da5-4d1b-8e24-58f2c87dfa72"
                }
            }
        },
        {
            "fullUrl": "urn:uuid:424ce99b-7f18-4546-aead-851613583f02",
            "resource": {
                "resourceType": "Observation",
                "id": "424ce99b-7f18-4546-aead-851613583f02",
                "meta": {
                    "profile": [
                        "http://hl7.org/fhir/us/vrdr/StructureDefinition/VRDR-Injury-Incident"
                    ]
                },
                "status": "final",
                "code": {
                    "coding": [
                        {
                            "system": "urn:oid:2.16.840.1.113883.3.290.2.1.19",
                            "code": "11374-6",
                            "display": "Injury incident description"
                        }
                    ]
                },
                "subject": {
                    "reference": "urn:uuid:c891509b-4ef1-43d3-aeb2-e18097892763"
                },
                "effectiveDateTime": "2024-05-02T00:00:00+00:00",
                "valueString": "Choke",
                "component": [
                    {
                        "code": {
                            "coding": [
                                {
                                    "system": "urn:oid:2.16.840.1.113883.6.1",
                                    "code": "69444-8",
                                    "display": "Did death result from injury at work"
                                }
                            ]
                        },
                        "valueCodeableConcept": {
                            "coding": [
                                {
                                    "system": "http://terminology.hl7.org/CodeSystem/v2-0136",
                                    "code": "N"
                                }
                            ],
                            "text": "No"
                        }
                    },
                    {
                        "code": {
                            "coding": [
                                {
                                    "system": "urn:oid:2.16.840.1.113883.6.1",
                                    "code": "69444-8",
                                    "display": "Did death result from injury at work"
                                }
                            ]
                        },
                        "valueCodeableConcept": {
                            "coding": [
                                {
                                    "system": "http://terminology.hl7.org/CodeSystem/v2-0136",
                                    "code": "N"
                                }
                            ],
                            "text": "No"
                        }
                    }
                ]
            }
        },
        {
            "fullUrl": "urn:uuid:f27f3b01-ec24-4d96-bae0-5a00b5971991",
            "resource": {
                "resourceType": "Observation",
                "id": "f27f3b01-ec24-4d96-bae0-5a00b5971991",
                "meta": {
                    "profile": [
                        "http://hl7.org/fhir/us/core/StructureDefinition/us-core-body-height"
                    ]
                },
                "status": "final",
                "category": [
                    {
                        "coding": [
                            {
                                "system": "http://terminology.hl7.org/CodeSystem/observation-category",
                                "code": "vital-signs",
                                "display": "Vital Signs"
                            }
                        ],
                        "text": "Vital Signs"
                    }
                ],
                "code": {
                    "coding": [
                        {
                            "system": "http://loinc.org",
                            "code": "8302-2",
                            "display": "Body height"
                        }
                    ],
                    "text": "height"
                },
                "subject": {
                    "reference": "urn:uuid:c891509b-4ef1-43d3-aeb2-e18097892763"
                },
                "effectiveDateTime": "2024-05-06",
                "valueQuantity": {
                    "value": 177.6984,
                    "unit": "cm",
                    "system": "http://unitsofmeasure.org",
                    "code": "cm"
                }
            }
        },
        {
            "fullUrl": "urn:uuid:18b5296e-d266-4d78-8582-7c0843fa909c",
            "resource": {
                "resourceType": "Observation",
                "id": "18b5296e-d266-4d78-8582-7c0843fa909c",
                "meta": {
                    "profile": [
                        "http://hl7.org/fhir/us/core/StructureDefinition/us-core-body-weight"
                    ]
                },
                "status": "final",
                "category": [
                    {
                        "coding": [
                            {
                                "system": "http://terminology.hl7.org/CodeSystem/observation-category",
                                "code": "vital-signs",
                                "display": "Vital Signs"
                            }
                        ],
                        "text": "Vital Signs"
                    }
                ],
                "code": {
                    "coding": [
                        {
                            "system": "http://loinc.org",
                            "code": "29463-7",
                            "display": "Body Weight"
                        }
                    ],
                    "text": "weight"
                },
                "subject": {
                    "reference": "urn:uuid:c891509b-4ef1-43d3-aeb2-e18097892763"
                },
                "effectiveDateTime": "2024-05-06",
                "valueQuantity": {
                    "value": 185,
                    "unit": "[lb_av]",
                    "system": "http://unitsofmeasure.org",
                    "code": "[lb_av]"
                }
            }
        },
        {
            "fullUrl": "urn:uuid:513f7c29-6809-4509-acfd-c72aee460cd0",
            "resource": {
                "resourceType": "Observation",
                "id": "513f7c29-6809-4509-acfd-c72aee460cd0",
                "meta": {
                    "profile": [
                        "http://example.org/clark-example-ig/NVDRS-Condition-Clinical"
                    ]
                },
                "status": "final",
                "category": [
                    {
                        "coding": [
                            {
                                "system": "http://example.org/clark-example-ig/Custom-Codesystem-Example",
                                "code": "circumstances",
                                "display": "Circumstances"
                            }
                        ],
                        "text": "Circumstances"
                    }
                ],
                "code": {
                    "coding": [
                        {
                            "system": "http://example.org/clark-example-ig/Custom-Codesystem-Example",
                            "code": "Condition-Clinical",
                            "display": "Condition Clinical"
                        }
                    ],
                    "text": "Condition Clinical"
                },
                "component": [
                    {
                        "code": {
                            "coding": [
                                {
                                    "system": "http://example.org/clark-example-ig/Custom-Codesystem-Example",
                                    "code": "suicide-attempt-history",
                                    "display": "Condition Clinical - Suicide Attempt History"
                                }
                            ],
                            "text": "Condition Clinical - Suicide Attempt History"
                        },
                        "valueCodeableConcept": {
                            "coding": [
                                {
                                    "system": "http://terminology.hl7.org/CodeSystem/v2-0136",
                                    "code": "N"
                                }
                            ],
                            "text": "No"
                        }
                    }
                ]
            }
        }
    ]
}