{
  "resourceType": "Bundle",
  "meta": {
    "profile": [
      "http://mortalityreporting.github.io/nvdrs-ig/StructureDefinition/nvdrs-document-bundle"
    ]
  },
  "identifier": {
    "system": "urn:gtri:heat-hisp:nvdrs-testing",
    "value": "urn:uuid:e2e9886b-e91e-451b-bbad-326d3e3d8fd8"
  },
  "type": "document",
  "timestamp": "2024-07-02T16:24:12.010129-04:00",
  "entry": [
    {
      "fullUrl": "urn:uuid:93836af0-2aff-48cd-98c9-4d301e2b6034",
      "resource": {
        "resourceType": "Composition",
        "id": "93836af0-2aff-48cd-98c9-4d301e2b6034",
        "meta": {
          "profile": [
            "http://mortalityreporting.github.io/nvdrs-ig/StructureDefinition/nvdrs-composition"
          ]
        },
        "extension": [
          {
            "url": "http://mortalityreporting.github.io/nvdrs-ig/StructureDefinition/nvdrs-force-new-record-extension",
            "valueBoolean": false
          },
          {
            "url": "http://mortalityreporting.github.io/nvdrs-ig/StructureDefinition/nvdrs-overwrite-conflicts-extension",
            "valueBoolean": true
          },
          {
            "url": "http://mortalityreporting.github.io/nvdrs-ig/StructureDefinition/nvdrs-incident-year-extension",
            "valueDate": "2024"
          },
          {
            "url": "http://mortalityreporting.github.io/nvdrs-ig/StructureDefinition/identifier-extension",
            "valueIdentifier": {
              "system": "urn:vdrs:nvdrs:victimnumber",
              "value": "1"
            }
          }
        ],
        "identifier": {
          "system": "urn:vdrs:nvdrs:incidentnumber",
          "value": "107"
        },
        "status": "final",
        "type": {
          "coding": [
            {
              "system": "http://mortalityreporting.github.io/nvdrs-ig/CodeSystem/nvdrs-custom-code-system",
              "code": "cme-report",
              "display": "C/ME Report"
            }
          ]
        },
        "subject": {
          "reference": "urn:uuid:956c53c0-a993-11ed-afa1-0242ac120002"
        },
        "date": "2024-07-02T16:24:11.985111-04:00",
        "author": [
          {
            "extension": [
              {
                "url": "http://hl7.org/fhir/StructureDefinition/data-absent-reason",
                "valueCode": "not-asked"
              }
            ]
          }
        ],
        "title": "NVDRS Document",
        "section": [
          {
            "title": "Weapon(s)",
            "code": {
              "coding": [
                {
                  "system": "http://mortalityreporting.github.io/nvdrs-ig/CodeSystem/nvdrs-custom-code-system",
                  "code": "weapons",
                  "display": "Weapon(s)"
                }
              ]
            },
            "entry": [
              {
                "reference": "urn:uuid:aeacbfe2-6985-433b-b524-f5174496a45d"
              }
            ]
          },
          {
            "title": "Injury and Death",
            "code": {
              "coding": [
                {
                  "system": "http://mortalityreporting.github.io/nvdrs-ig/CodeSystem/nvdrs-custom-code-system",
                  "code": "injury-and-death",
                  "display": "Injury and Death"
                }
              ]
            },
            "entry": [
              {
                "reference": "urn:uuid:87992632-0fc8-41fc-a0b8-ca9587a5ba13"
              },
              {
                "reference": "urn:uuid:f4789d51-200a-44a3-be15-8fbea7eca686"
              }
            ]
          },
          {
            "title": "Circumstances",
            "code": {
              "coding": [
                {
                  "system": "http://mortalityreporting.github.io/nvdrs-ig/CodeSystem/nvdrs-custom-code-system",
                  "code": "circumstances",
                  "display": "Circumstances"
                }
              ]
            },
            "entry": [
              {
                "reference": "urn:uuid:93e54cf2-d670-436f-b40f-eceedc6e48ed"
              },
              {
                "reference": "urn:uuid:70d2a8e7-bbf0-43f7-a678-74adb901599c"
              }
            ]
          },
          {
            "title": "Cause and Manner of Death Section",
            "code": {
              "coding": [
                {
                  "system": "http://hl7.org/fhir/us/mdi/CodeSystem/CodeSystem-vr-codes",
                  "code": "cause-manner",
                  "display": "Cause and Manner of Death Section"
                }
              ]
            },
            "entry": [
              {
                "reference": "urn:uuid:ae67f66f-3460-46b0-8202-44e629ede1a6"
              }
            ]
          }
        ]
      }
    },
    {
      "fullUrl": "urn:uuid:956c53c0-a993-11ed-afa1-0242ac120002",
      "resource": {
        "resourceType": "Patient",
        "id": "956c53c0-a993-11ed-afa1-0242ac120002",
        "meta": {
          "lastUpdated": "2024-07-02T16:24:11.960413-04:00",
          "profile": [
            "http://mortalityreporting.github.io/nvdrs-ig/StructureDefinition/nvdrs-decedent"
          ]
        },
        "extension": [
          {
            "url": "http://hl7.org/fhir/us/core/StructureDefinition/us-core-race",
            "extension": [
              {
                "url": "ombCategory",
                "valueCoding": {
                  "system": "urn:oid:2.16.840.1.113883.6.238",
                  "code": "2106-3",
                  "display": "White"
                }
              },
              {
                "url": "detailed",
                "valueCoding": {
                  "system": "urn:oid:2.16.840.1.113883.6.238",
                  "code": "2029-7",
                  "display": "Asian Indian"
                }
              },
              {
                "url": "text",
                "valueString": "Asian Indian"
              }
            ]
          },
          {
            "url": "http://hl7.org/fhir/us/core/StructureDefinition/us-core-ethnicity",
            "extension": [
              {
                "url": "ombCategory",
                "valueCoding": {
                  "system": "urn:oid:2.16.840.1.113883.6.238",
                  "code": "2186-5",
                  "display": "Not Hispanic or Latino"
                }
              },
              {
                "url": "detailed",
                "valueCoding": {
                  "system": "urn:oid:2.16.840.1.113883.6.238",
                  "code": "2162-6",
                  "display": "Central American Indian"
                }
              },
              {
                "url": "text",
                "valueString": "Not Hispanic or Latino"
              }
            ]
          },
          {
            "url": "http://hl7.org/fhir/us/core/StructureDefinition/us-core-birthsex",
            "valueCode": "F"
          },
          {
            "url": "http://hl7.org/fhir/us/vrdr/StructureDefinition/NVSS-SexAtDeath",
            "valueCodeableConcept": {
              "coding": [
                {
                  "system": "http://terminology.hl7.org/CodeSystem/v3-AdministrativeGender",
                  "code": "F",
                  "display": "Female"
                }
              ]
            }
          },
          {
            "url": "http://hl7.org/fhir/StructureDefinition/patient-birthPlace",
            "valueAddress": {
              "_city": {
                "extension": [
                  {
                    "url": "http://hl7.org/fhir/us/vr-common-library/StructureDefinition/CityCode",
                    "valuePositiveInt": 42425
                  }
                ]
              }
            }
          }
        ],
        "identifier": [
          {
            "use": "usual",
            "type": {
              "coding": [
                {
                  "system": "http://terminology.hl7.org/CodeSystem/v2-0203",
                  "code": "SB",
                  "display": "Social Beneficiary Identifier"
                }
              ]
            },
            "system": "http://hl7.org/fhir/sid/us-ssn",
            "value": "213456790"
          }
        ],
        "name": [
          {
            "family": "Organa",
            "given": [
              "Leia",
              "S"
            ]
          }
        ],
        "telecom": [
          {
            "system": "phone",
            "value": "404-123-0022",
            "use": "home"
          },
          {
            "system": "email",
            "value": "raven@mdi.org",
            "use": "work"
          }
        ],
        "gender": "female",
        "birthDate": "1978-03-12",
        "deceasedDateTime": "2024-03-02",
        "address": [
          {
            "use": "home",
            "type": "physical",
            "line": [
              "5100 Olympus Street",
              "Bldg5-12"
            ],
            "city": "Atlanta",
            "state": "GA",
            "postalCode": "09090",
            "country": "USA"
          }
        ]
      }
    },
    {
      "fullUrl": "urn:uuid:aeacbfe2-6985-433b-b524-f5174496a45d",
      "resource": {
        "resourceType": "Observation",
        "id": "aeacbfe2-6985-433b-b524-f5174496a45d",
        "meta": {
          "profile": [
            "http://mortalityreporting.github.io/nvdrs-ig/StructureDefinition/nvdrs-weapon-type"
          ]
        },
        "code": {
          "coding": [
            {
              "system": "http://mortalityreporting.github.io/nvdrs-ig/CodeSystem/nvdrs-custom-code-system",
              "code": "weapon-type",
              "display": "Type of Weapon"
            }
          ]
        },
        "subject": {
          "reference": "urn:uuid:956c53c0-a993-11ed-afa1-0242ac120002"
        },
        "focus": [
          {
            "reference": "urn:uuid:9841cb1d-7e5b-4671-9f70-11d0f0cc6ebf"
          }
        ],
        "valueCodeableConcept": {
          "coding": [
            {
              "system": "http://mortalityreporting.github.io/nvdrs-ig/CodeSystem/nvdrs-coding-manual-cs",
              "code": "WeaponType1",
              "display": "Firearm"
            }
          ]
        }
      }
    },
    {
      "fullUrl": "urn:uuid:9841cb1d-7e5b-4671-9f70-11d0f0cc6ebf",
      "resource": {
        "resourceType": "Observation",
        "id": "9841cb1d-7e5b-4671-9f70-11d0f0cc6ebf",
        "meta": {
          "lastUpdated": "2024-07-02T16:24:11.982124-04:00",
          "profile": [
            "http://mortalityreporting.github.io/nvdrs-ig/StructureDefinition/nvdrs-firearm"
          ]
        },
        "extension": [
          {
            "url": "http://mortalityreporting.github.io/nvdrs-ig/StructureDefinition/nvdrs-firearm-stolen-extension",
            "valueCodeableConcept": {
              "coding": [
                {
                  "system": "http://terminology.hl7.org/CodeSystem/v2-0136",
                  "code": "Y",
                  "display": "Yes"
                }
              ]
            }
          },
          {
            "url": "http://mortalityreporting.github.io/nvdrs-ig/StructureDefinition/firearm-serial-number",
            "valueIdentifier": {
              "system": "urn:vdrs:ncic:serialnumber",
              "value": "12345-0987"
            }
          }
        ],
        "category": [
          {
            "coding": [
              {
                "system": "http://mortalityreporting.github.io/nvdrs-ig/CodeSystem/nvdrs-custom-code-system",
                "code": "weapons",
                "display": "Weapon(s)"
              }
            ],
            "text": "Data elements that fall under the weapon(s) category"
          }
        ],
        "code": {
          "coding": [
            {
              "system": "http://mortalityreporting.github.io/nvdrs-ig/CodeSystem/nvdrs-custom-code-system",
              "code": "firearm",
              "display": "Details on Firearm"
            }
          ]
        },
        "subject": {
          "reference": "urn:uuid:956c53c0-a993-11ed-afa1-0242ac120002"
        },
        "component": [
          {
            "code": {
              "coding": [
                {
                  "system": "http://mortalityreporting.github.io/nvdrs-ig/CodeSystem/nvdrs-custom-code-system",
                  "code": "firearm-type",
                  "display": "Firearm - Type"
                }
              ]
            },
            "valueCodeableConcept": {
              "coding": [
                {
                  "system": "http://mortalityreporting.github.io/nvdrs-ig/CodeSystem/nvdrs-coding-manual-cs",
                  "code": "FirearmType3",
                  "display": "Handgun, Pistol- Bolt Action"
                }
              ]
            }
          },
          {
            "code": {
              "coding": [
                {
                  "system": "http://mortalityreporting.github.io/nvdrs-ig/CodeSystem/nvdrs-custom-code-system",
                  "code": "firearm-make",
                  "display": "Firearm - Gun Make or NCIC Code"
                }
              ]
            },
            "valueString": "64"
          },
          {
            "code": {
              "coding": [
                {
                  "system": "http://mortalityreporting.github.io/nvdrs-ig/CodeSystem/nvdrs-custom-code-system",
                  "code": "firearm-model",
                  "display": "Firearm - Gun Model"
                }
              ]
            },
            "valueString": "512"
          },
          {
            "code": {
              "coding": [
                {
                  "system": "http://mortalityreporting.github.io/nvdrs-ig/CodeSystem/nvdrs-custom-code-system",
                  "code": "firearm-caliber",
                  "display": "Firearm - Caliber"
                }
              ]
            },
            "valueString": "556"
          }
        ]
      }
    },
    {
      "fullUrl": "urn:uuid:87992632-0fc8-41fc-a0b8-ca9587a5ba13",
      "resource": {
        "resourceType": "Observation",
        "id": "87992632-0fc8-41fc-a0b8-ca9587a5ba13",
        "meta": {
          "lastUpdated": "2024-07-02T16:24:11.995608-04:00",
          "profile": [
            "http://mortalityreporting.github.io/nvdrs-ig/StructureDefinition/nvdrs-number-of-bullets"
          ]
        },
        "category": [
          {
            "coding": [
              {
                "system": "http://mortalityreporting.github.io/nvdrs-ig/CodeSystem/nvdrs-custom-code-system",
                "code": "injury-and-death",
                "display": "Injury and Death"
              }
            ],
            "text": "Data elements that fall under the injury and death category"
          }
        ],
        "code": {
          "coding": [
            {
              "system": "http://mortalityreporting.github.io/nvdrs-ig/CodeSystem/nvdrs-custom-code-system",
              "code": "number-of-bullets",
              "display": "Number of Bullets"
            }
          ]
        },
        "subject": {
          "reference": "urn:uuid:956c53c0-a993-11ed-afa1-0242ac120002"
        },
        "valueInteger": 3
      }
    },
    {
      "fullUrl": "urn:uuid:f4789d51-200a-44a3-be15-8fbea7eca686",
      "resource": {
        "resourceType": "Observation",
        "id": "f4789d51-200a-44a3-be15-8fbea7eca686",
        "meta": {
          "lastUpdated": "2024-07-02T16:24:11.99579-04:00",
          "profile": [
            "http://mortalityreporting.github.io/nvdrs-ig/StructureDefinition/nvdrs-wound-location"
          ]
        },
        "category": [
          {
            "coding": [
              {
                "system": "http://mortalityreporting.github.io/nvdrs-ig/CodeSystem/nvdrs-custom-code-system",
                "code": "injury-and-death",
                "display": "Injury and Death"
              }
            ],
            "text": "Data elements that fall under the injury and death category"
          }
        ],
        "code": {
          "coding": [
            {
              "system": "http://mortalityreporting.github.io/nvdrs-ig/CodeSystem/nvdrs-custom-code-system",
              "code": "wound-to-the-spine",
              "display": "Wound to the spine"
            }
          ]
        },
        "subject": {
          "reference": "urn:uuid:956c53c0-a993-11ed-afa1-0242ac120002"
        },
        "valueCodeableConcept": {
          "coding": [
            {
              "system": "http://mortalityreporting.github.io/nvdrs-ig/CodeSystem/nvdrs-coding-manual-cs",
              "code": "WoundLocation1",
              "display": "Present (wounded)"
            }
          ]
        }
      }
    },
    {
      "fullUrl": "urn:uuid:93e54cf2-d670-436f-b40f-eceedc6e48ed",
      "resource": {
        "resourceType": "Observation",
        "id": "93e54cf2-d670-436f-b40f-eceedc6e48ed",
        "meta": {
          "lastUpdated": "2024-07-02T16:24:11.996134-04:00",
          "profile": [
            "http://mortalityreporting.github.io/nvdrs-ig/StructureDefinition/nvdrs-random-violence"
          ]
        },
        "category": [
          {
            "coding": [
              {
                "system": "http://mortalityreporting.github.io/nvdrs-ig/CodeSystem/nvdrs-custom-code-system",
                "code": "circumstances",
                "display": "Circumstances"
              }
            ],
            "text": "Data elements that fall under the circumstances category"
          }
        ],
        "code": {
          "coding": [
            {
              "system": "http://mortalityreporting.github.io/nvdrs-ig/CodeSystem/nvdrs-custom-code-system",
              "code": "random-violence",
              "display": "Incident is Random Violence"
            }
          ]
        },
        "subject": {
          "reference": "urn:uuid:956c53c0-a993-11ed-afa1-0242ac120002"
        },
        "valueCodeableConcept": {
          "coding": [
            {
              "system": "http://terminology.hl7.org/CodeSystem/v2-0136",
              "code": "Y",
              "display": "Yes"
            }
          ]
        }
      }
    },
    {
      "fullUrl": "urn:uuid:70d2a8e7-bbf0-43f7-a678-74adb901599c",
      "resource": {
        "resourceType": "Observation",
        "id": "70d2a8e7-bbf0-43f7-a678-74adb901599c",
        "meta": {
          "profile": [
            "http://mortalityreporting.github.io/nvdrs-ig/StructureDefinition/nvdrs-playing-with-firearm"
          ]
        },
        "code": {
          "coding": [
            {
              "system": "http://mortalityreporting.github.io/nvdrs-ig/CodeSystem/nvdrs-custom-code-system",
              "code": "playing-with-firearm",
              "display": "Playing with Firearm"
            }
          ],
          "text": "Playing with Firearm"
        },
        "subject": {
          "reference": "urn:uuid:956c53c0-a993-11ed-afa1-0242ac120002"
        },
        "valueCodeableConcept": {
          "coding": [
            {
              "system": "http://terminology.hl7.org/CodeSystem/v2-0136",
              "code": "Y",
              "display": "Yes"
            }
          ]
        }
      }
    },
    {
      "fullUrl": "urn:uuid:ae67f66f-3460-46b0-8202-44e629ede1a6",
      "resource": {
        "resourceType": "Observation",
        "id": "ae67f66f-3460-46b0-8202-44e629ede1a6",
        "meta": {
          "profile": [
            "http://hl7.org/fhir/us/vrdr/StructureDefinition/vrdr-manner-of-death"
          ]
        },
        "status": "final",
        "code": {
          "coding": [
            {
              "system": "http://loinc.org",
              "code": "69449-7"
            }
          ]
        },
        "subject": {
          "reference": "urn:uuid:956c53c0-a993-11ed-afa1-0242ac120002"
        },
        "performer": [
          {
            "reference": "urn:uuid:ac069540-a993-11ed-afa1-0242ac120002"
          }
        ],
        "valueCodeableConcept": {
          "coding": [
            {
              "system": "http://snomed.info/sct",
              "code": "7878000",
              "display": "Accidental death"
            }
          ]
        }
      }
    }
  ]
}