{
  "resourceType": "Bundle",
  "meta": {
    "profile": [
      "http://mortalityreporting.github.io/nvdrs-ig/StructureDefinition/nvdrs-document-bundle"
    ]
  },
  "identifier": {
    "system": "urn:gtri:heat-hisp:nvdrs-testing",
    "value": "urn:uuid:5bd6661e-7a62-4210-a8e5-a4942c83fcf3"
  },
  "type": "document",
  "timestamp": "2024-07-02T03:56:04.178603-04:00",
  "entry": [
    {
      "fullUrl": "urn:uuid:6e054d00-706a-4573-911c-4f6011939178",
      "resource": {
        "resourceType": "Composition",
        "id": "6e054d00-706a-4573-911c-4f6011939178",
        "meta": {
          "profile": [
            "http://mortalityreporting.github.io/nvdrs-ig/StructureDefinition/nvdrs-composition"
          ]
        },
        "extension": [
          {
            "url": "http://mortalityreporting.github.io/nvdrs-ig/StructureDefinition/nvdrs-force-new-record-extension",
            "valueBoolean": false
          },
          {
            "url": "http://mortalityreporting.github.io/nvdrs-ig/StructureDefinition/nvdrs-overwrite-conflicts-extension",
            "valueBoolean": true
          },
          {
            "url": "http://mortalityreporting.github.io/nvdrs-ig/StructureDefinition/nvdrs-incident-year-extension",
            "valueDate": "2024"
          },
          {
            "url": "http://mortalityreporting.github.io/nvdrs-ig/StructureDefinition/identifier-extension",
            "valueIdentifier": {
              "system": "urn:vdrs:nvdrs:victimnumber",
              "value": "1"
            }
          }
        ],
        "identifier": {
          "system": "urn:vdrs:nvdrs:incidentnumber",
          "value": "107"
        },
        "status": "final",
        "type": {
          "coding": [
            {
              "system": "http://mortalityreporting.github.io/nvdrs-ig/CodeSystem/nvdrs-custom-code-system",
              "code": "cme-report",
              "display": "C/ME Report"
            }
          ]
        },
        "subject": {
          "reference": "urn:uuid:956c53c0-a993-11ed-afa1-0242ac120002"
        },
        "date": "2024-07-02T03:56:04.155838-04:00",
        "author": [
          {
            "extension": [
              {
                "url": "http://hl7.org/fhir/StructureDefinition/data-absent-reason",
                "valueCode": "not-asked"
              }
            ]
          }
        ],
        "title": "NVDRS Document",
        "section": [
          {
            "title": "Weapon(s)",
            "code": {
              "coding": [
                {
                  "system": "http://mortalityreporting.github.io/nvdrs-ig/CodeSystem/nvdrs-custom-code-system",
                  "code": "weapons",
                  "display": "Weapon(s)"
                }
              ]
            },
            "entry": [
              {
                "reference": "urn:uuid:da153e9d-bcc6-4147-97f5-476933467215"
              }
            ]
          },
          {
            "title": "Injury and Death",
            "code": {
              "coding": [
                {
                  "system": "http://mortalityreporting.github.io/nvdrs-ig/CodeSystem/nvdrs-custom-code-system",
                  "code": "injury-and-death",
                  "display": "Injury and Death"
                }
              ]
            },
            "entry": [
              {
                "reference": "urn:uuid:520fffc8-13b6-4673-a6a3-47a11608651c"
              },
              {
                "reference": "urn:uuid:fcd1b10f-9b04-4db7-9cef-74fd847a1f3a"
              }
            ]
          },
          {
            "title": "Circumstances",
            "code": {
              "coding": [
                {
                  "system": "http://mortalityreporting.github.io/nvdrs-ig/CodeSystem/nvdrs-custom-code-system",
                  "code": "circumstances",
                  "display": "Circumstances"
                }
              ]
            },
            "entry": [
              {
                "reference": "urn:uuid:816c9276-f1fe-4444-ae93-f45824477b02"
              },
              {
                "reference": "urn:uuid:e8d0fd53-82da-455d-a9a1-27626a9b86b1"
              }
            ]
          }
        ]
      }
    },
    {
      "fullUrl": "urn:uuid:956c53c0-a993-11ed-afa1-0242ac120002",
      "resource": {
        "resourceType": "Patient",
        "id": "956c53c0-a993-11ed-afa1-0242ac120002",
        "meta": {
          "lastUpdated": "2024-07-02T03:56:04.128343-04:00",
          "profile": [
            "http://mortalityreporting.github.io/nvdrs-ig/StructureDefinition/nvdrs-decedent"
          ]
        },
        "extension": [
          {
            "url": "http://hl7.org/fhir/us/core/StructureDefinition/us-core-race",
            "extension": [
              {
                "url": "ombCategory",
                "valueCoding": {
                  "system": "urn:oid:2.16.840.1.113883.6.238",
                  "code": "2106-3",
                  "display": "White"
                }
              },
              {
                "url": "detailed",
                "valueCoding": {
                  "system": "urn:oid:2.16.840.1.113883.6.238",
                  "code": "2029-7",
                  "display": "Asian Indian"
                }
              },
              {
                "url": "text",
                "valueString": "Asian Indian"
              }
            ]
          },
          {
            "url": "http://hl7.org/fhir/us/core/StructureDefinition/us-core-ethnicity",
            "extension": [
              {
                "url": "ombCategory",
                "valueCoding": {
                  "system": "urn:oid:2.16.840.1.113883.6.238",
                  "code": "2186-5",
                  "display": "Not Hispanic or Latino"
                }
              },
              {
                "url": "detailed",
                "valueCoding": {
                  "system": "urn:oid:2.16.840.1.113883.6.238",
                  "code": "2162-6",
                  "display": "Central American Indian"
                }
              },
              {
                "url": "text",
                "valueString": "Not Hispanic or Latino"
              }
            ]
          },
          {
            "url": "http://hl7.org/fhir/us/core/StructureDefinition/us-core-birthsex",
            "valueCode": "F"
          },
          {
            "url": "http://hl7.org/fhir/us/vrdr/StructureDefinition/NVSS-SexAtDeath",
            "valueCodeableConcept": {
              "coding": [
                {
                  "system": "http://terminology.hl7.org/CodeSystem/v3-AdministrativeGender",
                  "code": "F",
                  "display": "Female"
                }
              ]
            }
          },
          {
            "url": "http://hl7.org/fhir/StructureDefinition/patient-birthPlace",
            "valueAddress": {
              "_city": {
                "extension": [
                  {
                    "url": "http://hl7.org/fhir/us/vr-common-library/StructureDefinition/CityCode",
                    "valuePositiveInt": 42425
                  }
                ]
              }
            }
          }
        ],
        "identifier": [
          {
            "use": "usual",
            "type": {
              "coding": [
                {
                  "system": "http://terminology.hl7.org/CodeSystem/v2-0203",
                  "code": "SB",
                  "display": "Social Beneficiary Identifier"
                }
              ]
            },
            "system": "http://hl7.org/fhir/sid/us-ssn",
            "value": "213456790"
          }
        ],
        "name": [
          {
            "family": "Organa",
            "given": [
              "Leia",
              "S"
            ]
          }
        ],
        "telecom": [
          {
            "system": "phone",
            "value": "404-123-0022",
            "use": "home"
          },
          {
            "system": "email",
            "value": "raven@mdi.org",
            "use": "work"
          }
        ],
        "gender": "female",
        "birthDate": "1978-03-12",
        "deceasedDateTime": "2024-03-02",
        "address": [
          {
            "use": "home",
            "type": "physical",
            "line": [
              "5100 Olympus Street",
              "Bldg5-12"
            ],
            "city": "Atlanta",
            "state": "GA",
            "postalCode": "09090",
            "country": "USA"
          }
        ]
      }
    },
    {
      "fullUrl": "urn:uuid:da153e9d-bcc6-4147-97f5-476933467215",
      "resource": {
        "resourceType": "Observation",
        "id": "da153e9d-bcc6-4147-97f5-476933467215",
        "meta": {
          "profile": [
            "http://mortalityreporting.github.io/nvdrs-ig/StructureDefinition/nvdrs-weapon-type"
          ]
        },
        "code": {
          "coding": [
            {
              "system": "http://mortalityreporting.github.io/nvdrs-ig/CodeSystem/nvdrs-custom-code-system",
              "code": "weapon-type",
              "display": "Type of Weapon"
            }
          ]
        },
        "subject": {
          "reference": "urn:uuid:956c53c0-a993-11ed-afa1-0242ac120002"
        },
        "focus": [
          {
            "reference": "urn:uuid:d9b275ad-b097-4dfc-943a-3508a3581145"
          }
        ],
        "valueCodeableConcept": {
          "coding": [
            {
              "system": "http://mortalityreporting.github.io/nvdrs-ig/CodeSystem/nvdrs-coding-manual-cs",
              "code": "WeaponType1",
              "display": "Firearm"
            }
          ]
        }
      }
    },
    {
      "fullUrl": "urn:uuid:d9b275ad-b097-4dfc-943a-3508a3581145",
      "resource": {
        "resourceType": "Observation",
        "id": "d9b275ad-b097-4dfc-943a-3508a3581145",
        "meta": {
          "lastUpdated": "2024-07-02T03:56:04.152684-04:00",
          "profile": [
            "http://mortalityreporting.github.io/nvdrs-ig/StructureDefinition/nvdrs-firearm"
          ]
        },
        "extension": [
          {
            "url": "http://mortalityreporting.github.io/nvdrs-ig/StructureDefinition/nvdrs-firearm-stolen-extension",
            "valueCodeableConcept": {
              "coding": [
                {
                  "system": "http://terminology.hl7.org/CodeSystem/v2-0136",
                  "code": "Y",
                  "display": "Yes"
                }
              ]
            }
          },
          {
            "url": "http://mortalityreporting.github.io/nvdrs-ig/StructureDefinition/firearm-serial-number",
            "valueIdentifier": {
              "system": "urn:vdrs:ncic:serialnumber",
              "value": "12345-0987"
            }
          }
        ],
        "category": [
          {
            "coding": [
              {
                "system": "http://mortalityreporting.github.io/nvdrs-ig/CodeSystem/nvdrs-custom-code-system",
                "code": "weapons",
                "display": "Weapon(s)"
              }
            ],
            "text": "Data elements that fall under the weapon(s) category"
          }
        ],
        "code": {
          "coding": [
            {
              "system": "http://mortalityreporting.github.io/nvdrs-ig/CodeSystem/nvdrs-custom-code-system",
              "code": "firearm",
              "display": "Details on Firearm"
            }
          ]
        },
        "subject": {
          "reference": "urn:uuid:956c53c0-a993-11ed-afa1-0242ac120002"
        },
        "component": [
          {
            "code": {
              "coding": [
                {
                  "system": "http://mortalityreporting.github.io/nvdrs-ig/CodeSystem/nvdrs-custom-code-system",
                  "code": "firearm-type",
                  "display": "Firearm - Type"
                }
              ]
            },
            "valueCodeableConcept": {
              "coding": [
                {
                  "system": "http://mortalityreporting.github.io/nvdrs-ig/CodeSystem/nvdrs-coding-manual-cs",
                  "code": "FirearmType3",
                  "display": "Handgun, Pistol- Bolt Action"
                }
              ]
            }
          },
          {
            "code": {
              "coding": [
                {
                  "system": "http://mortalityreporting.github.io/nvdrs-ig/CodeSystem/nvdrs-custom-code-system",
                  "code": "firearm-make",
                  "display": "Firearm - Gun Make or NCIC Code"
                }
              ]
            },
            "valueString": "64"
          },
          {
            "code": {
              "coding": [
                {
                  "system": "http://mortalityreporting.github.io/nvdrs-ig/CodeSystem/nvdrs-custom-code-system",
                  "code": "firearm-model",
                  "display": "Firearm - Gun Model"
                }
              ]
            },
            "valueString": "512"
          },
          {
            "code": {
              "coding": [
                {
                  "system": "http://mortalityreporting.github.io/nvdrs-ig/CodeSystem/nvdrs-custom-code-system",
                  "code": "firearm-caliber",
                  "display": "Firearm - Caliber"
                }
              ]
            },
            "valueString": "556"
          }
        ]
      }
    },
    {
      "fullUrl": "urn:uuid:520fffc8-13b6-4673-a6a3-47a11608651c",
      "resource": {
        "resourceType": "Observation",
        "id": "520fffc8-13b6-4673-a6a3-47a11608651c",
        "meta": {
          "lastUpdated": "2024-07-02T03:56:04.167561-04:00",
          "profile": [
            "http://mortalityreporting.github.io/nvdrs-ig/StructureDefinition/nvdrs-number-of-bullets"
          ]
        },
        "category": [
          {
            "coding": [
              {
                "system": "http://mortalityreporting.github.io/nvdrs-ig/CodeSystem/nvdrs-custom-code-system",
                "code": "injury-and-death",
                "display": "Injury and Death"
              }
            ],
            "text": "Data elements that fall under the injury and death category"
          }
        ],
        "code": {
          "coding": [
            {
              "system": "http://mortalityreporting.github.io/nvdrs-ig/CodeSystem/nvdrs-custom-code-system",
              "code": "number-of-bullets",
              "display": "Number of Bullets"
            }
          ]
        },
        "subject": {
          "reference": "urn:uuid:956c53c0-a993-11ed-afa1-0242ac120002"
        },
        "valueInteger": 3
      }
    },
    {
      "fullUrl": "urn:uuid:fcd1b10f-9b04-4db7-9cef-74fd847a1f3a",
      "resource": {
        "resourceType": "Observation",
        "id": "fcd1b10f-9b04-4db7-9cef-74fd847a1f3a",
        "meta": {
          "lastUpdated": "2024-07-02T03:56:04.167784-04:00",
          "profile": [
            "http://mortalityreporting.github.io/nvdrs-ig/StructureDefinition/nvdrs-wound-location"
          ]
        },
        "category": [
          {
            "coding": [
              {
                "system": "http://mortalityreporting.github.io/nvdrs-ig/CodeSystem/nvdrs-custom-code-system",
                "code": "injury-and-death",
                "display": "Injury and Death"
              }
            ],
            "text": "Data elements that fall under the injury and death category"
          }
        ],
        "code": {
          "coding": [
            {
              "system": "http://mortalityreporting.github.io/nvdrs-ig/CodeSystem/nvdrs-custom-code-system",
              "code": "wound-to-the-spine",
              "display": "Wound to the spine"
            }
          ]
        },
        "subject": {
          "reference": "urn:uuid:956c53c0-a993-11ed-afa1-0242ac120002"
        },
        "valueCodeableConcept": {
          "coding": [
            {
              "system": "http://mortalityreporting.github.io/nvdrs-ig/CodeSystem/nvdrs-coding-manual-cs",
              "code": "WoundLocation1",
              "display": "Present (wounded)"
            }
          ]
        }
      }
    },
    {
      "fullUrl": "urn:uuid:816c9276-f1fe-4444-ae93-f45824477b02",
      "resource": {
        "resourceType": "Observation",
        "id": "816c9276-f1fe-4444-ae93-f45824477b02",
        "meta": {
          "lastUpdated": "2024-07-02T03:56:04.168205-04:00",
          "profile": [
            "http://mortalityreporting.github.io/nvdrs-ig/StructureDefinition/nvdrs-random-violence"
          ]
        },
        "category": [
          {
            "coding": [
              {
                "system": "http://mortalityreporting.github.io/nvdrs-ig/CodeSystem/nvdrs-custom-code-system",
                "code": "circumstances",
                "display": "Circumstances"
              }
            ],
            "text": "Data elements that fall under the circumstances category"
          }
        ],
        "code": {
          "coding": [
            {
              "system": "http://mortalityreporting.github.io/nvdrs-ig/CodeSystem/nvdrs-custom-code-system",
              "code": "random-violence",
              "display": "Incident is Random Violence"
            }
          ]
        },
        "subject": {
          "reference": "urn:uuid:956c53c0-a993-11ed-afa1-0242ac120002"
        },
        "valueCodeableConcept": {
          "coding": [
            {
              "system": "http://terminology.hl7.org/CodeSystem/v2-0136",
              "code": "Y",
              "display": "Yes"
            }
          ]
        }
      }
    },
    {
      "fullUrl": "urn:uuid:e8d0fd53-82da-455d-a9a1-27626a9b86b1",
      "resource": {
        "resourceType": "Observation",
        "id": "e8d0fd53-82da-455d-a9a1-27626a9b86b1",
        "meta": {
          "profile": [
            "http://mortalityreporting.github.io/nvdrs-ig/StructureDefinition/nvdrs-playing-with-firearm"
          ]
        },
        "code": {
          "coding": [
            {
              "system": "http://mortalityreporting.github.io/nvdrs-ig/CodeSystem/nvdrs-custom-code-system",
              "code": "playing-with-firearm",
              "display": "Playing with Firearm"
            }
          ],
          "text": "Playing with Firearm"
        },
        "subject": {
          "reference": "urn:uuid:956c53c0-a993-11ed-afa1-0242ac120002"
        },
        "valueCodeableConcept": {
          "coding": [
            {
              "system": "http://terminology.hl7.org/CodeSystem/v2-0136",
              "code": "Y",
              "display": "Yes"
            }
          ]
        }
      }
    }
  ]
}