{
  "resourceType": "Bundle",
  "meta": {
    "profile": [
      "http://mortalityreporting.github.io/nvdrs-ig/StructureDefinition/nvdrs-document-bundle"
    ]
  },
  "identifier": {
    "system": "urn:gtri:heat-hisp:nvdrs-testing",
    "value": "urn:uuid:7568a77a-68ff-46c1-9727-56ff6cf343e8"
  },
  "type": "document",
  "timestamp": "2024-07-08T09:38:55.809496-04:00",
  "entry": [
    {
      "fullUrl": "urn:uuid:f999cef9-fd28-4d28-9c01-df9d8c27be63",
      "resource": {
        "resourceType": "Composition",
        "id": "f999cef9-fd28-4d28-9c01-df9d8c27be63",
        "meta": {
          "profile": [
            "http://mortalityreporting.github.io/nvdrs-ig/StructureDefinition/nvdrs-composition"
          ]
        },
        "extension": [
          {
            "url": "http://mortalityreporting.github.io/nvdrs-ig/StructureDefinition/nvdrs-force-new-record-extension",
            "valueBoolean": true
          }
        ],
        "status": "final",
        "type": {
          "coding": [
            {
              "system": "http://mortalityreporting.github.io/nvdrs-ig/CodeSystem/nvdrs-custom-code-system",
              "code": "cme-report",
              "display": "C/ME Report"
            }
          ]
        },
        "subject": {
          "reference": "urn:uuid:283bb416-2854-427f-a611-1488098a3660"
        },
        "date": "2024-07-08T09:38:55.768199-04:00",
        "author": [
          {
            "reference": "urn:uuid:ac069540-a993-11ed-afa1-0242ac120002"
          }
        ],
        "title": "NVDRS Document",
        "section": [
          {
            "title": "Injury and Death",
            "code": {
              "coding": [
                {
                  "system": "http://mortalityreporting.github.io/nvdrs-ig/CodeSystem/nvdrs-custom-code-system",
                  "code": "injury-and-death",
                  "display": "Injury and Death"
                }
              ]
            },
            "entry": [
              {
                "reference": "urn:uuid:20f64e65-c83a-4a71-9ad5-1013205308bc"
              },
              {
                "reference": "urn:uuid:c7f414af-942c-4cc8-98c4-c5af9668a8fe"
              },
              {
                "reference": "urn:uuid:77765383-606c-4b1b-9832-cb2d8921dae9"
              },
              {
                "reference": "urn:uuid:2b76e23c-b9ec-40f4-bc3a-a86927ae963b"
              },
              {
                "reference": "urn:uuid:613574c1-e918-4fb7-a78b-da4d25d5b1cc"
              },
              {
                "reference": "urn:uuid:a04a9891-f305-4f18-9fd1-233bc85e9f70"
              }
            ]
          },
          {
            "title": "Circumstances",
            "code": {
              "coding": [
                {
                  "system": "http://mortalityreporting.github.io/nvdrs-ig/CodeSystem/nvdrs-custom-code-system",
                  "code": "circumstances",
                  "display": "Circumstances"
                }
              ]
            },
            "entry": [
              {
                "reference": "urn:uuid:90f8eea9-5b59-4352-bd83-8ddccb06f391"
              },
              {
                "reference": "urn:uuid:d1f5ec4d-8b2d-4380-a9a5-d991a85afbbe"
              },
              {
                "reference": "urn:uuid:aaa483e1-c449-41ff-acc3-568e0c4f9ffc"
              },
              {
                "reference": "urn:uuid:4eebf0b0-51af-4443-9bb1-fa882030d2a4"
              },
              {
                "reference": "urn:uuid:622461a5-6861-4607-9ec0-c4fcbe1e6bc5"
              },
              {
                "reference": "urn:uuid:2d9465b9-0425-4136-9ee6-a32cb699de06"
              },
              {
                "reference": "urn:uuid:b2101e23-dae9-4763-a4ae-ce88af20b840"
              },
              {
                "reference": "urn:uuid:a6fc1ee7-a3a2-4f2a-b238-de185744e604"
              },
              {
                "reference": "urn:uuid:eb1131c4-0a80-415c-8f66-c89e6f9c7839"
              },
              {
                "reference": "urn:uuid:5e6f1845-2e4e-4ae9-a8f3-59c48f755f30"
              },
              {
                "reference": "urn:uuid:0a704896-cee9-4359-a60f-e199303fc1e1"
              },
              {
                "reference": "urn:uuid:378a0e9f-4a16-4bcd-aaba-96b98be2d021"
              },
              {
                "reference": "urn:uuid:f17eed78-e569-4693-ab9a-86c73006909f"
              }
            ]
          },
          {
            "title": "Toxicology",
            "code": {
              "coding": [
                {
                  "system": "http://mortalityreporting.github.io/nvdrs-ig/CodeSystem/nvdrs-custom-code-system",
                  "code": "toxicology",
                  "display": "Toxicology"
                }
              ]
            },
            "entry": [
              {
                "reference": "urn:uuid:1d1eb632-1570-49aa-ac6a-6d3ea64268fe"
              },
              {
                "reference": "urn:uuid:99aebfcb-9f21-401e-85ec-a76e89c0520f"
              },
              {
                "reference": "urn:uuid:6628fdd6-d324-403b-810b-b9f6b4ebd5dc"
              },
              {
                "reference": "urn:uuid:d1e7fa67-82e0-4787-8f0a-fca93dbd14c7"
              },
              {
                "reference": "urn:uuid:6ff8aaf4-5075-4b7d-a75f-224766595693"
              },
              {
                "reference": "urn:uuid:c0ac5cf4-ba5e-4e5b-be3d-2107be100980"
              }
            ]
          },
          {
            "title": "Demographics",
            "code": {
              "coding": [
                {
                  "system": "http://mortalityreporting.github.io/nvdrs-ig/CodeSystem/nvdrs-custom-code-system",
                  "code": "demographics",
                  "display": "Demographics"
                }
              ]
            },
            "entry": [
              {
                "reference": "urn:uuid:33cc4afe-18fb-40ea-ba04-8f6f1c1a831b"
              },
              {
                "reference": "urn:uuid:5a60cf82-1d35-4817-a24f-d6e1a675a4c1"
              },
              {
                "reference": "urn:uuid:fd27df10-e8a9-499c-b1a4-ab971f02da6f"
              }
            ]
          },
          {
            "title": "Weapon(s)",
            "code": {
              "coding": [
                {
                  "system": "http://mortalityreporting.github.io/nvdrs-ig/CodeSystem/nvdrs-custom-code-system",
                  "code": "weapons",
                  "display": "Weapon(s)"
                }
              ]
            },
            "entry": [
              {
                "reference": "urn:uuid:5fd7c788-a8fd-451e-ac73-8f4efbc88b19"
              }
            ]
          },
          {
            "title": "Cause and Manner of Death Section",
            "code": {
              "coding": [
                {
                  "system": "http://hl7.org/fhir/us/mdi/CodeSystem/CodeSystem-vr-codes",
                  "code": "cause-manner",
                  "display": "Cause and Manner of Death Section"
                }
              ]
            },
            "entry": [
              {
                "reference": "urn:uuid:66c58228-0baa-42f5-8093-320920382d40"
              },
              {
                "reference": "urn:uuid:07aab0b2-d28e-4eed-ac26-2388bde86721"
              },
              {
                "reference": "urn:uuid:252a88dc-98ba-49b0-a71e-77b9e5969c93"
              },
              {
                "reference": "urn:uuid:edc212ef-ff56-498f-a317-77ad331e4676"
              },
              {
                "reference": "urn:uuid:4972fe61-5f29-4b38-9ac1-c2431bb84274"
              }
            ]
          },
          {
            "title": "Jurisdiction Section",
            "code": {
              "coding": [
                {
                  "system": "http://hl7.org/fhir/us/mdi/CodeSystem/CodeSystem-vr-codes",
                  "code": "jurisdiction",
                  "display": "Jurisdiction Section"
                }
              ]
            },
            "entry": [
              {
                "reference": "urn:uuid:56d02f57-a980-4250-8d3e-d0aaadcde8b5"
              }
            ]
          },
          {
            "title": "Medical History Section",
            "code": {
              "coding": [
                {
                  "system": "http://hl7.org/fhir/us/mdi/CodeSystem/CodeSystem-vr-codes",
                  "code": "medical-history",
                  "display": "Medical History Section"
                }
              ]
            },
            "entry": [
              {
                "reference": "urn:uuid:293ff5a3-6615-4560-9daf-7f1087b419ed"
              },
              {
                "reference": "urn:uuid:349792ed-a72a-4009-8238-5d2c00f5f894"
              }
            ]
          },
          {
            "title": "Appendix",
            "code": {
              "coding": [
                {
                  "system": "urn:vdrs:document-sections",
                  "code": "appenddix",
                  "display": "Appendix"
                }
              ]
            },
            "entry": [
              {
                "reference": "urn:uuid:70522ad6-0403-466b-8592-d0362477fd0c"
              }
            ]
          }
        ]
      }
    },
    {
      "fullUrl": "urn:uuid:283bb416-2854-427f-a611-1488098a3660",
      "resource": {
        "resourceType": "Patient",
        "id": "283bb416-2854-427f-a611-1488098a3660",
        "meta": {
          "lastUpdated": "2024-07-08T09:38:55.739917-04:00",
          "profile": [
            "http://hl7.org/fhir/us/vrdr/StructureDefinition/vrdr-cause-of-death-part2"
          ]
        },
        "extension": [
          {
            "url": "http://hl7.org/fhir/us/core/StructureDefinition/us-core-race",
            "extension": [
              {
                "url": "ombCategory",
                "valueCoding": {
                  "system": "http://terminology.hl7.org/CodeSystem/v3-NullFlavor",
                  "code": "UNK",
                  "display": "unknown"
                }
              },
              {
                "url": "detailed",
                "valueCoding": {
                  "system": "http://terminology.hl7.org/CodeSystem/v3-NullFlavor",
                  "code": "UNK",
                  "display": "unknown"
                }
              },
              {
                "url": "text",
                "valueString": "unknown"
              }
            ]
          },
          {
            "url": "http://hl7.org/fhir/us/core/StructureDefinition/us-core-ethnicity",
            "extension": [
              {
                "url": "ombCategory",
                "valueCoding": {
                  "system": "urn:oid:2.16.840.1.113883.6.238",
                  "code": "2135-2",
                  "display": "Hispanic or Latino"
                }
              },
              {
                "url": "detailed",
                "valueCoding": {
                  "system": "urn:oid:2.16.840.1.113883.6.238",
                  "code": "2149-3",
                  "display": "Mexican American"
                }
              },
              {
                "url": "text",
                "valueString": "Mexican American"
              }
            ]
          }
        ],
        "identifier": [
          {
            "use": "usual",
            "type": {
              "coding": [
                {
                  "system": "http://terminology.hl7.org/CodeSystem/v2-0203",
                  "code": "SB",
                  "display": "Social Beneficiary Identifier"
                }
              ]
            },
            "system": "http://hl7.org/fhir/sid/us-ssn",
            "value": "55555555"
          }
        ],
        "name": [
          {
            "use": "official",
            "family": "Cane",
            "given": [
              "Jhon",
              "Michael"
            ],
            "suffix": [
              "First"
            ]
          },
          {
            "use": "nickname",
            "family": "NameAKA"
          }
        ],
        "gender": "male",
        "birthDate": "2000-04-23",
        "address": [
          {
            "line": [
              "9127 Katy Freeway"
            ],
            "city": "Houston",
            "state": "Texas",
            "postalCode": "77024",
            "country": "United States"
          }
        ]
      }
    },
    {
      "fullUrl": "urn:uuid:ac069540-a993-11ed-afa1-0242ac120002",
      "resource": {
        "resourceType": "Practitioner",
        "id": "ac069540-a993-11ed-afa1-0242ac120002",
        "identifier": [
          {
            "system": "http://hl7.org/fhir/sid/us-npi",
            "value": "3333445555"
          }
        ],
        "name": [
          {
            "use": "official",
            "family": "Jones",
            "given": [
              "Sam"
            ],
            "prefix": [
              "Dr"
            ]
          }
        ],
        "telecom": [
          {
            "system": "phone",
            "value": "134-456-7890",
            "use": "work"
          }
        ],
        "address": [
          {
            "extension": [
              {
                "url": "http://hl7.org/fhir/us/vr-common-library/StructureDefinition/StreetName",
                "valueString": "Olympic Blvd"
              }
            ],
            "use": "work",
            "type": "physical",
            "line": [
              "567 Coda Blvd"
            ],
            "city": "Atlanta",
            "district": "Fulton County",
            "_district": {
              "extension": [
                {
                  "url": "http://hl7.org/fhir/us/vr-common-library/StructureDefinition/DistrictCode",
                  "valuePositiveInt": 4000
                }
              ]
            },
            "state": "GA",
            "postalCode": "30318",
            "country": "USA"
          }
        ]
      }
    },
    {
      "fullUrl": "urn:uuid:20f64e65-c83a-4a71-9ad5-1013205308bc",
      "resource": {
        "resourceType": "Observation",
        "id": "20f64e65-c83a-4a71-9ad5-1013205308bc",
        "meta": {
          "lastUpdated": "2024-07-08T09:38:55.779357-04:00",
          "profile": [
            "http://mortalityreporting.github.io/nvdrs-ig/StructureDefinition/nvdrs-ems-at-scene"
          ]
        },
        "category": [
          {
            "coding": [
              {
                "system": "http://mortalityreporting.github.io/nvdrs-ig/CodeSystem/nvdrs-custom-code-system",
                "code": "injury-and-death",
                "display": "Injury and Death"
              }
            ],
            "text": "Data elements that fall under the injury and death category"
          }
        ],
        "code": {
          "coding": [
            {
              "system": "http://mortalityreporting.github.io/nvdrs-ig/CodeSystem/nvdrs-custom-code-system",
              "code": "ems-at-scene",
              "display": "EMS at Scene"
            }
          ]
        },
        "subject": {
          "reference": "urn:uuid:283bb416-2854-427f-a611-1488098a3660"
        },
        "valueCodeableConcept": {
          "coding": [
            {
              "system": "http://terminology.hl7.org/CodeSystem/v2-0136",
              "code": "Y",
              "display": "Yes"
            }
          ]
        }
      }
    },
    {
      "fullUrl": "urn:uuid:c7f414af-942c-4cc8-98c4-c5af9668a8fe",
      "resource": {
        "resourceType": "Observation",
        "id": "c7f414af-942c-4cc8-98c4-c5af9668a8fe",
        "meta": {
          "lastUpdated": "2024-07-08T09:38:55.779584-04:00",
          "profile": [
            "http://mortalityreporting.github.io/nvdrs-ig/StructureDefinition/nvdrs-number-of-bullets"
          ]
        },
        "category": [
          {
            "coding": [
              {
                "system": "http://mortalityreporting.github.io/nvdrs-ig/CodeSystem/nvdrs-custom-code-system",
                "code": "injury-and-death",
                "display": "Injury and Death"
              }
            ],
            "text": "Data elements that fall under the injury and death category"
          }
        ],
        "code": {
          "coding": [
            {
              "system": "http://mortalityreporting.github.io/nvdrs-ig/CodeSystem/nvdrs-custom-code-system",
              "code": "number-of-bullets",
              "display": "Number of Bullets"
            }
          ]
        },
        "subject": {
          "reference": "urn:uuid:283bb416-2854-427f-a611-1488098a3660"
        },
        "valueInteger": 3
      }
    },
    {
      "fullUrl": "urn:uuid:77765383-606c-4b1b-9832-cb2d8921dae9",
      "resource": {
        "resourceType": "Observation",
        "id": "77765383-606c-4b1b-9832-cb2d8921dae9",
        "meta": {
          "lastUpdated": "2024-07-08T09:38:55.779786-04:00",
          "profile": [
            "http://mortalityreporting.github.io/nvdrs-ig/StructureDefinition/nvdrs-victim-in-custody-when-injured"
          ]
        },
        "category": [
          {
            "coding": [
              {
                "system": "http://mortalityreporting.github.io/nvdrs-ig/CodeSystem/nvdrs-custom-code-system",
                "code": "injury-and-death",
                "display": "Injury and Death"
              }
            ],
            "text": "Data elements that fall under the injury and death category"
          }
        ],
        "code": {
          "coding": [
            {
              "system": "http://mortalityreporting.github.io/nvdrs-ig/CodeSystem/nvdrs-custom-code-system",
              "code": "victim-in-custody-when-injured",
              "display": "Victim in custody when injured"
            }
          ]
        },
        "subject": {
          "reference": "urn:uuid:283bb416-2854-427f-a611-1488098a3660"
        },
        "valueCodeableConcept": {
          "coding": [
            {
              "system": "http://terminology.hl7.org/CodeSystem/v2-0136",
              "code": "Y",
              "display": "Yes"
            }
          ]
        }
      }
    },
    {
      "fullUrl": "urn:uuid:2b76e23c-b9ec-40f4-bc3a-a86927ae963b",
      "resource": {
        "resourceType": "Observation",
        "id": "2b76e23c-b9ec-40f4-bc3a-a86927ae963b",
        "meta": {
          "profile": [
            "http://hl7.org/fhir/us/vrdr/StructureDefinition/vrdr-injury-incident"
          ]
        },
        "code": {
          "coding": [
            {
              "system": "http://loinc.org",
              "code": "11374-6"
            }
          ]
        },
        "subject": {
          "reference": "urn:uuid:283bb416-2854-427f-a611-1488098a3660"
        },
        "component": [
          {
            "code": {
              "coding": [
                {
                  "system": "http://loinc.org",
                  "code": "69444-8"
                }
              ]
            },
            "valueCodeableConcept": {
              "coding": [
                {
                  "system": "http://terminology.hl7.org/CodeSystem/v2-0136",
                  "code": "Y",
                  "display": "Yes"
                }
              ]
            }
          },
          {
            "code": {
              "coding": [
                {
                  "system": "http://loinc.org",
                  "code": "69450-5"
                }
              ]
            },
            "valueString": "company"
          },
          {
            "code": {
              "coding": [
                {
                  "system": "http://loinc.org",
                  "code": "69451-3"
                }
              ]
            },
            "valueCodeableConcept": {
              "coding": [
                {
                  "system": "http://terminology.hl7.org/CodeSystem/v3-NullFlavor",
                  "code": "OTH",
                  "display": "other"
                }
              ],
              "text": "Rear Right"
            }
          }
        ]
      }
    },
    {
      "fullUrl": "urn:uuid:613574c1-e918-4fb7-a78b-da4d25d5b1cc",
      "resource": {
        "resourceType": "Location",
        "id": "613574c1-e918-4fb7-a78b-da4d25d5b1cc",
        "meta": {
          "profile": [
            "http://hl7.org/fhir/us/vr-common-library/StructureDefinition/Location-vr"
          ]
        },
        "type": [
          {
            "coding": [
              {
                "system": "http://hl7.org/fhir/us/vrdr/CodeSystem/vrdr-location-type-cs",
                "code": "injury",
                "display": "Injury Location"
              }
            ]
          }
        ],
        "address": {
          "line": [
            "27421 Valley Center Road"
          ],
          "city": "Valley Center",
          "district": "San Diego",
          "state": "California",
          "postalCode": "92082",
          "country": "United States"
        }
      }
    },
    {
      "fullUrl": "urn:uuid:a04a9891-f305-4f18-9fd1-233bc85e9f70",
      "resource": {
        "resourceType": "Observation",
        "id": "a04a9891-f305-4f18-9fd1-233bc85e9f70",
        "meta": {
          "profile": [
            "http://hl7.org/fhir/us/vr-common-library/StructureDefinition/Observation-autopsy-performed-indicator-vr"
          ]
        },
        "code": {
          "coding": [
            {
              "system": "http://loinc.org",
              "code": "85699-7",
              "display": "Autopsy was performed"
            }
          ]
        },
        "subject": {
          "reference": "urn:uuid:283bb416-2854-427f-a611-1488098a3660"
        },
        "valueCodeableConcept": {
          "coding": [
            {
              "system": "http://terminology.hl7.org/CodeSystem/v2-0136",
              "code": "N",
              "display": "No"
            }
          ]
        }
      }
    },
    {
      "fullUrl": "urn:uuid:90f8eea9-5b59-4352-bd83-8ddccb06f391",
      "resource": {
        "resourceType": "Observation",
        "id": "90f8eea9-5b59-4352-bd83-8ddccb06f391",
        "meta": {
          "profile": [
            "http://mortalityreporting.github.io/nvdrs-ig/StructureDefinition/nvdrs-circumstances",
            "http://mortalityreporting.github.io/nvdrs-ig/StructureDefinition/nvdrs-current-depressed-mood"
          ]
        },
        "category": [
          {
            "coding": [
              {
                "system": "http://mortalityreporting.github.io/nvdrs-ig/CodeSystem/nvdrs-custom-code-system",
                "code": "circumstances",
                "display": "Circumstances"
              }
            ],
            "text": "Data elements that fall under the circumstances category"
          }
        ],
        "code": {
          "coding": [
            {
              "system": "http://mortalityreporting.github.io/nvdrs-ig/CodeSystem/nvdrs-custom-code-system",
              "code": "current-depressed-mood",
              "display": "Current depressed mood"
            }
          ]
        },
        "subject": {
          "reference": "urn:uuid:283bb416-2854-427f-a611-1488098a3660"
        },
        "valueCodeableConcept": {
          "coding": [
            {
              "system": "http://terminology.hl7.org/CodeSystem/v2-0136",
              "code": "Y",
              "display": "Yes"
            }
          ]
        }
      }
    },
    {
      "fullUrl": "urn:uuid:d1f5ec4d-8b2d-4380-a9a5-d991a85afbbe",
      "resource": {
        "resourceType": "Observation",
        "id": "d1f5ec4d-8b2d-4380-a9a5-d991a85afbbe",
        "meta": {
          "profile": [
            "http://mortalityreporting.github.io/nvdrs-ig/StructureDefinition/vdrs-history-of-mental-illness"
          ]
        },
        "code": {
          "coding": [
            {
              "system": "http://mortalityreporting.github.io/nvdrs-ig/CodeSystem/nvdrs-custom-code-system",
              "code": "history-of-mental-illness",
              "display": "History of Mental Illness"
            }
          ]
        },
        "subject": {
          "reference": "urn:uuid:283bb416-2854-427f-a611-1488098a3660"
        },
        "valueCodeableConcept": {
          "coding": [
            {
              "system": "http://terminology.hl7.org/CodeSystem/v2-0136",
              "code": "Y",
              "display": "Yes"
            }
          ]
        }
      }
    },
    {
      "fullUrl": "urn:uuid:aaa483e1-c449-41ff-acc3-568e0c4f9ffc",
      "resource": {
        "resourceType": "Observation",
        "id": "aaa483e1-c449-41ff-acc3-568e0c4f9ffc",
        "meta": {
          "lastUpdated": "2024-07-08T09:38:55.785174-04:00",
          "profile": [
            "http://mortalityreporting.github.io/nvdrs-ig/StructureDefinition/nvdrs-history-of-self-harm"
          ]
        },
        "category": [
          {
            "coding": [
              {
                "system": "http://mortalityreporting.github.io/nvdrs-ig/CodeSystem/nvdrs-custom-code-system",
                "code": "circumstances",
                "display": "Circumstances"
              }
            ],
            "text": "Data elements that fall under the circumstances category"
          }
        ],
        "code": {
          "coding": [
            {
              "system": "http://mortalityreporting.github.io/nvdrs-ig/CodeSystem/nvdrs-custom-code-system",
              "code": "self-harm",
              "display": "Non-suicidal self-Injury/self-harm"
            }
          ],
          "text": "History of non-suicidal self-Injury/self-harm"
        },
        "subject": {
          "reference": "urn:uuid:283bb416-2854-427f-a611-1488098a3660"
        },
        "valueCodeableConcept": {
          "coding": [
            {
              "system": "http://terminology.hl7.org/CodeSystem/v2-0136",
              "code": "Y",
              "display": "Yes"
            }
          ]
        }
      }
    },
    {
      "fullUrl": "urn:uuid:4eebf0b0-51af-4443-9bb1-fa882030d2a4",
      "resource": {
        "resourceType": "Observation",
        "id": "4eebf0b0-51af-4443-9bb1-fa882030d2a4",
        "meta": {
          "lastUpdated": "2024-07-08T09:38:55.785271-04:00",
          "profile": [
            "http://mortalityreporting.github.io/nvdrs-ig/StructureDefinition/nvdrs-random-violence"
          ]
        },
        "category": [
          {
            "coding": [
              {
                "system": "http://mortalityreporting.github.io/nvdrs-ig/CodeSystem/nvdrs-custom-code-system",
                "code": "circumstances",
                "display": "Circumstances"
              }
            ],
            "text": "Data elements that fall under the circumstances category"
          }
        ],
        "code": {
          "coding": [
            {
              "system": "http://mortalityreporting.github.io/nvdrs-ig/CodeSystem/nvdrs-custom-code-system",
              "code": "random-violence",
              "display": "Incident is Random Violence"
            }
          ]
        },
        "subject": {
          "reference": "urn:uuid:283bb416-2854-427f-a611-1488098a3660"
        },
        "valueCodeableConcept": {
          "coding": [
            {
              "system": "http://terminology.hl7.org/CodeSystem/v2-0136",
              "code": "Y",
              "display": "Yes"
            }
          ]
        }
      }
    },
    {
      "fullUrl": "urn:uuid:622461a5-6861-4607-9ec0-c4fcbe1e6bc5",
      "resource": {
        "resourceType": "Observation",
        "id": "622461a5-6861-4607-9ec0-c4fcbe1e6bc5",
        "meta": {
          "lastUpdated": "2024-07-08T09:38:55.785359-04:00",
          "profile": [
            "http://mortalityreporting.github.io/nvdrs-ig/StructureDefinition/nvdrs-school-problem"
          ]
        },
        "category": [
          {
            "coding": [
              {
                "system": "http://mortalityreporting.github.io/nvdrs-ig/CodeSystem/nvdrs-custom-code-system",
                "code": "circumstances",
                "display": "Circumstances"
              }
            ],
            "text": "Data elements that fall under the circumstances category"
          }
        ],
        "code": {
          "coding": [
            {
              "system": "http://mortalityreporting.github.io/nvdrs-ig/CodeSystem/nvdrs-custom-code-system",
              "code": "school-problem",
              "display": "School Problem"
            }
          ]
        },
        "subject": {
          "reference": "urn:uuid:283bb416-2854-427f-a611-1488098a3660"
        },
        "valueCodeableConcept": {
          "coding": [
            {
              "system": "http://terminology.hl7.org/CodeSystem/v2-0136",
              "code": "Y",
              "display": "Yes"
            }
          ]
        }
      }
    },
    {
      "fullUrl": "urn:uuid:2d9465b9-0425-4136-9ee6-a32cb699de06",
      "resource": {
        "resourceType": "Observation",
        "id": "2d9465b9-0425-4136-9ee6-a32cb699de06",
        "meta": {
          "lastUpdated": "2024-07-08T09:38:55.785444-04:00",
          "profile": [
            "http://mortalityreporting.github.io/nvdrs-ig/StructureDefinition/nvdrs-history-of-suicide-attempts"
          ]
        },
        "category": [
          {
            "coding": [
              {
                "system": "http://mortalityreporting.github.io/nvdrs-ig/CodeSystem/nvdrs-custom-code-system",
                "code": "circumstances",
                "display": "Circumstances"
              }
            ],
            "text": "Data elements that fall under the circumstances category"
          }
        ],
        "code": {
          "coding": [
            {
              "system": "http://mortalityreporting.github.io/nvdrs-ig/CodeSystem/nvdrs-custom-code-system",
              "code": "history-of-suicide-attempts",
              "display": "History of Suicide Attempts"
            }
          ]
        },
        "subject": {
          "reference": "urn:uuid:283bb416-2854-427f-a611-1488098a3660"
        },
        "valueCodeableConcept": {
          "coding": [
            {
              "system": "http://terminology.hl7.org/CodeSystem/v2-0136",
              "code": "Y",
              "display": "Yes"
            }
          ]
        }
      }
    },
    {
      "fullUrl": "urn:uuid:b2101e23-dae9-4763-a4ae-ce88af20b840",
      "resource": {
        "resourceType": "Observation",
        "id": "b2101e23-dae9-4763-a4ae-ce88af20b840",
        "meta": {
          "profile": [
            "http://mortalityreporting.github.io/nvdrs-ig/StructureDefinition/vdrs-suicide-note"
          ]
        },
        "code": {
          "coding": [
            {
              "system": "http://mortalityreporting.github.io/nvdrs-ig/CodeSystem/nvdrs-custom-code-system",
              "code": "suicide-note",
              "display": "Suicide Note"
            }
          ]
        },
        "subject": {
          "reference": "urn:uuid:283bb416-2854-427f-a611-1488098a3660"
        },
        "valueString": "Sorry.. I am ..."
      }
    },
    {
      "fullUrl": "urn:uuid:a6fc1ee7-a3a2-4f2a-b238-de185744e604",
      "resource": {
        "resourceType": "Observation",
        "id": "a6fc1ee7-a3a2-4f2a-b238-de185744e604",
        "meta": {
          "lastUpdated": "2024-07-08T09:38:55.785644-04:00",
          "profile": [
            "http://mortalityreporting.github.io/nvdrs-ig/StructureDefinition/nvdrs-history-alcohol-use"
          ]
        },
        "category": [
          {
            "coding": [
              {
                "system": "http://mortalityreporting.github.io/nvdrs-ig/CodeSystem/nvdrs-custom-code-system",
                "code": "circumstances",
                "display": "Circumstances"
              }
            ],
            "text": "Data elements that fall under the circumstances category"
          }
        ],
        "code": {
          "coding": [
            {
              "system": "http://loinc.org",
              "code": "11331-6",
              "display": "History of Alcohol Use"
            }
          ]
        },
        "subject": {
          "reference": "urn:uuid:283bb416-2854-427f-a611-1488098a3660"
        },
        "valueCodeableConcept": {
          "coding": [
            {
              "system": "http://terminology.hl7.org/CodeSystem/v2-0136",
              "code": "Y",
              "display": "Yes"
            }
          ]
        }
      }
    },
    {
      "fullUrl": "urn:uuid:eb1131c4-0a80-415c-8f66-c89e6f9c7839",
      "resource": {
        "resourceType": "Observation",
        "id": "eb1131c4-0a80-415c-8f66-c89e6f9c7839",
        "meta": {
          "profile": [
            "http://mortalityreporting.github.io/nvdrs-ig/StructureDefinition/nvdrs-circumstances"
          ]
        },
        "category": [
          {
            "coding": [
              {
                "system": "http://mortalityreporting.github.io/nvdrs-ig/CodeSystem/nvdrs-custom-code-system",
                "code": "circumstances",
                "display": "Circumstances"
              }
            ],
            "text": "Data elements that fall under the circumstances category"
          }
        ],
        "code": {
          "coding": [
            {
              "system": "http://mortalityreporting.github.io/nvdrs-ig/CodeSystem/nvdrs-custom-code-system",
              "code": "drug-involvement",
              "display": "Drug Involvement"
            }
          ]
        },
        "subject": {
          "reference": "urn:uuid:283bb416-2854-427f-a611-1488098a3660"
        },
        "valueCodeableConcept": {
          "coding": [
            {
              "system": "http://terminology.hl7.org/CodeSystem/v2-0136",
              "code": "Y",
              "display": "Yes"
            }
          ]
        }
      }
    },
    {
      "fullUrl": "urn:uuid:5e6f1845-2e4e-4ae9-a8f3-59c48f755f30",
      "resource": {
        "resourceType": "Observation",
        "id": "5e6f1845-2e4e-4ae9-a8f3-59c48f755f30",
        "meta": {
          "lastUpdated": "2024-07-08T09:38:55.785729-04:00",
          "profile": [
            "http://mortalityreporting.github.io/nvdrs-ig/StructureDefinition/nvdrs-death-abuse"
          ]
        },
        "category": [
          {
            "coding": [
              {
                "system": "http://mortalityreporting.github.io/nvdrs-ig/CodeSystem/nvdrs-custom-code-system",
                "code": "circumstances",
                "display": "Circumstances"
              }
            ],
            "text": "Data elements that fall under the circumstances category"
          }
        ],
        "code": {
          "coding": [
            {
              "system": "http://mortalityreporting.github.io/nvdrs-ig/CodeSystem/nvdrs-custom-code-system",
              "code": "death-abuse",
              "display": "Abuse or neglect led to death"
            }
          ]
        },
        "valueCodeableConcept": {
          "coding": [
            {
              "system": "http://terminology.hl7.org/CodeSystem/v2-0136",
              "code": "N",
              "display": "No"
            }
          ]
        }
      }
    },
    {
      "fullUrl": "urn:uuid:0a704896-cee9-4359-a60f-e199303fc1e1",
      "resource": {
        "resourceType": "Observation",
        "id": "0a704896-cee9-4359-a60f-e199303fc1e1",
        "meta": {
          "lastUpdated": "2024-07-08T09:38:55.785812-04:00",
          "profile": [
            "http://mortalityreporting.github.io/nvdrs-ig/StructureDefinition/nvdrs-gang-related"
          ]
        },
        "category": [
          {
            "coding": [
              {
                "system": "http://mortalityreporting.github.io/nvdrs-ig/CodeSystem/nvdrs-custom-code-system",
                "code": "circumstances",
                "display": "Circumstances"
              }
            ],
            "text": "Data elements that fall under the circumstances category"
          }
        ],
        "code": {
          "coding": [
            {
              "system": "http://mortalityreporting.github.io/nvdrs-ig/CodeSystem/nvdrs-custom-code-system",
              "code": "gang-related",
              "display": "Gang Related"
            }
          ],
          "text": "Death was gang related"
        },
        "subject": {
          "reference": "urn:uuid:283bb416-2854-427f-a611-1488098a3660"
        },
        "valueCodeableConcept": {
          "coding": [
            {
              "system": "http://mortalityreporting.github.io/nvdrs-ig/CodeSystem/nvdrs-coding-manual-cs",
              "code": "GangRelated1",
              "display": "Yes, gang motivated"
            }
          ]
        }
      }
    },
    {
      "fullUrl": "urn:uuid:378a0e9f-4a16-4bcd-aaba-96b98be2d021",
      "resource": {
        "resourceType": "Observation",
        "id": "378a0e9f-4a16-4bcd-aaba-96b98be2d021",
        "meta": {
          "lastUpdated": "2024-07-08T09:38:55.786345-04:00",
          "profile": [
            "http://mortalityreporting.github.io/nvdrs-ig/StructureDefinition/nvdrs-drive-by-shooting"
          ]
        },
        "category": [
          {
            "coding": [
              {
                "system": "http://mortalityreporting.github.io/nvdrs-ig/CodeSystem/nvdrs-custom-code-system",
                "code": "circumstances",
                "display": "Circumstances"
              }
            ],
            "text": "Data elements that fall under the circumstances category"
          }
        ],
        "code": {
          "coding": [
            {
              "system": "http://mortalityreporting.github.io/nvdrs-ig/CodeSystem/nvdrs-custom-code-system",
              "code": "drive-by-shooting",
              "display": "Drive-by Shooting"
            }
          ]
        },
        "subject": {
          "reference": "urn:uuid:283bb416-2854-427f-a611-1488098a3660"
        },
        "valueCodeableConcept": {
          "coding": [
            {
              "system": "http://terminology.hl7.org/CodeSystem/v2-0136",
              "code": "Y",
              "display": "Yes"
            }
          ]
        }
      }
    },
    {
      "fullUrl": "urn:uuid:f17eed78-e569-4693-ab9a-86c73006909f",
      "resource": {
        "resourceType": "Observation",
        "id": "f17eed78-e569-4693-ab9a-86c73006909f",
        "meta": {
          "profile": [
            "http://mortalityreporting.github.io/nvdrs-ig/StructureDefinition/nvdrs-playing-with-firearm"
          ]
        },
        "code": {
          "coding": [
            {
              "system": "http://mortalityreporting.github.io/nvdrs-ig/CodeSystem/nvdrs-custom-code-system",
              "code": "playing-with-firearm",
              "display": "Playing with Firearm"
            }
          ],
          "text": "Playing with Firearm"
        },
        "subject": {
          "reference": "urn:uuid:283bb416-2854-427f-a611-1488098a3660"
        },
        "valueCodeableConcept": {
          "coding": [
            {
              "system": "http://terminology.hl7.org/CodeSystem/v2-0136",
              "code": "Y",
              "display": "Yes"
            }
          ]
        }
      }
    },
    {
      "fullUrl": "urn:uuid:1d1eb632-1570-49aa-ac6a-6d3ea64268fe",
      "resource": {
        "resourceType": "Observation",
        "id": "1d1eb632-1570-49aa-ac6a-6d3ea64268fe",
        "meta": {
          "profile": [
            "http://hl7.org/fhir/us/mdi/StructureDefinition/Observation-toxicology-lab-result"
          ]
        },
        "category": [
          {
            "coding": [
              {
                "system": "http://terminology.hl7.org/CodeSystem/observation-category",
                "code": "laboratory",
                "display": "Laboratory"
              }
            ]
          }
        ],
        "code": {
          "text": "Alcohol"
        },
        "subject": {
          "reference": "urn:uuid:283bb416-2854-427f-a611-1488098a3660"
        },
        "valueString": "4"
      }
    },
    {
      "fullUrl": "urn:uuid:99aebfcb-9f21-401e-85ec-a76e89c0520f",
      "resource": {
        "resourceType": "Observation",
        "id": "99aebfcb-9f21-401e-85ec-a76e89c0520f",
        "meta": {
          "profile": [
            "http://hl7.org/fhir/us/mdi/StructureDefinition/Observation-toxicology-lab-result"
          ]
        },
        "category": [
          {
            "coding": [
              {
                "system": "http://terminology.hl7.org/CodeSystem/observation-category",
                "code": "laboratory",
                "display": "Laboratory"
              }
            ]
          }
        ],
        "code": {
          "text": "Amphetamine"
        },
        "subject": {
          "reference": "urn:uuid:283bb416-2854-427f-a611-1488098a3660"
        },
        "valueString": "8 mg"
      }
    },
    {
      "fullUrl": "urn:uuid:6628fdd6-d324-403b-810b-b9f6b4ebd5dc",
      "resource": {
        "resourceType": "Observation",
        "id": "6628fdd6-d324-403b-810b-b9f6b4ebd5dc",
        "meta": {
          "profile": [
            "http://hl7.org/fhir/us/mdi/StructureDefinition/Observation-toxicology-lab-result"
          ]
        },
        "category": [
          {
            "coding": [
              {
                "system": "http://terminology.hl7.org/CodeSystem/observation-category",
                "code": "laboratory",
                "display": "Laboratory"
              }
            ]
          }
        ],
        "code": {
          "text": "Benzodiazepines"
        },
        "subject": {
          "reference": "urn:uuid:283bb416-2854-427f-a611-1488098a3660"
        },
        "valueString": "10 mg"
      }
    },
    {
      "fullUrl": "urn:uuid:d1e7fa67-82e0-4787-8f0a-fca93dbd14c7",
      "resource": {
        "resourceType": "Observation",
        "id": "d1e7fa67-82e0-4787-8f0a-fca93dbd14c7",
        "meta": {
          "profile": [
            "http://hl7.org/fhir/us/mdi/StructureDefinition/Observation-toxicology-lab-result"
          ]
        },
        "category": [
          {
            "coding": [
              {
                "system": "http://terminology.hl7.org/CodeSystem/observation-category",
                "code": "laboratory",
                "display": "Laboratory"
              }
            ]
          }
        ],
        "code": {
          "text": "Cocaine"
        },
        "subject": {
          "reference": "urn:uuid:283bb416-2854-427f-a611-1488098a3660"
        },
        "valueString": "9 mg"
      }
    },
    {
      "fullUrl": "urn:uuid:6ff8aaf4-5075-4b7d-a75f-224766595693",
      "resource": {
        "resourceType": "Observation",
        "id": "6ff8aaf4-5075-4b7d-a75f-224766595693",
        "meta": {
          "profile": [
            "http://hl7.org/fhir/us/mdi/StructureDefinition/Observation-toxicology-lab-result"
          ]
        },
        "category": [
          {
            "coding": [
              {
                "system": "http://terminology.hl7.org/CodeSystem/observation-category",
                "code": "laboratory",
                "display": "Laboratory"
              }
            ]
          }
        ],
        "code": {
          "text": "Opiate"
        },
        "subject": {
          "reference": "urn:uuid:283bb416-2854-427f-a611-1488098a3660"
        },
        "valueString": "11 mg"
      }
    },
    {
      "fullUrl": "urn:uuid:c0ac5cf4-ba5e-4e5b-be3d-2107be100980",
      "resource": {
        "resourceType": "Specimen",
        "id": "c0ac5cf4-ba5e-4e5b-be3d-2107be100980",
        "meta": {
          "profile": [
            "http://hl7.org/fhir/us/mdi/StructureDefinition/Specimen-toxicology-lab"
          ]
        },
        "type": {
          "text": "Bile specimen (specimen)"
        }
      }
    },
    {
      "fullUrl": "urn:uuid:33cc4afe-18fb-40ea-ba04-8f6f1c1a831b",
      "resource": {
        "resourceType": "Observation",
        "id": "33cc4afe-18fb-40ea-ba04-8f6f1c1a831b",
        "meta": {
          "lastUpdated": "2024-07-08T09:38:55.787939-04:00",
          "profile": [
            "http://mortalityreporting.github.io/nvdrs-ig/StructureDefinition/nvdrs-homeless-at-death"
          ]
        },
        "category": [
          {
            "coding": [
              {
                "system": "http://terminology.hl7.org/CodeSystem/observation-category",
                "code": "social-history"
              }
            ]
          },
          {
            "coding": [
              {
                "system": "http://mortalityreporting.github.io/nvdrs-ig/CodeSystem/nvdrs-custom-code-system",
                "code": "demographics",
                "display": "Demographics"
              }
            ],
            "text": "Data elements that fall under the demographics category"
          }
        ],
        "code": {
          "coding": [
            {
              "system": "http://mortalityreporting.github.io/nvdrs-ig/CodeSystem/nvdrs-custom-code-system",
              "code": "homeless-at-death",
              "display": "Homeless (at time of death)"
            }
          ]
        },
        "subject": {
          "reference": "urn:uuid:283bb416-2854-427f-a611-1488098a3660"
        },
        "valueCodeableConcept": {
          "coding": [
            {
              "system": "http://terminology.hl7.org/CodeSystem/v2-0136",
              "code": "Y",
              "display": "Yes"
            }
          ]
        }
      }
    },
    {
      "fullUrl": "urn:uuid:5a60cf82-1d35-4817-a24f-d6e1a675a4c1",
      "resource": {
        "resourceType": "Observation",
        "id": "5a60cf82-1d35-4817-a24f-d6e1a675a4c1",
        "meta": {
          "profile": [
            "http://hl7.org/fhir/us/vrdr/StructureDefinition/vrdr-decedent-age"
          ]
        },
        "code": {
          "coding": [
            {
              "system": "http://loinc.org",
              "code": "39016-1"
            }
          ]
        },
        "subject": {
          "reference": "urn:uuid:283bb416-2854-427f-a611-1488098a3660"
        },
        "valueQuantity": {
          "value": 24,
          "unit": "a"
        }
      }
    },
    {
      "fullUrl": "urn:uuid:fd27df10-e8a9-499c-b1a4-ab971f02da6f",
      "resource": {
        "resourceType": "Observation",
        "id": "fd27df10-e8a9-499c-b1a4-ab971f02da6f",
        "meta": {
          "profile": [
            "http://hl7.org/fhir/us/odh/StructureDefinition/odh-UsualWork"
          ]
        },
        "category": [
          {
            "coding": [
              {
                "system": "http://terminology.hl7.org/CodeSystem/observation-category",
                "code": "social-history"
              }
            ]
          }
        ],
        "code": {
          "coding": [
            {
              "system": "http://loinc.org",
              "code": "21843-8",
              "display": "History of Usual occupation"
            }
          ]
        },
        "subject": {
          "reference": "urn:uuid:283bb416-2854-427f-a611-1488098a3660"
        },
        "valueCodeableConcept": {
          "text": "Occupation"
        },
        "component": [
          {
            "code": {
              "coding": [
                {
                  "system": "http://loinc.org",
                  "code": "21844-6",
                  "display": "History of Usual industry"
                }
              ]
            },
            "valueCodeableConcept": {
              "text": "Occupation"
            }
          }
        ]
      }
    },
    {
      "fullUrl": "urn:uuid:5fd7c788-a8fd-451e-ac73-8f4efbc88b19",
      "resource": {
        "resourceType": "Observation",
        "id": "5fd7c788-a8fd-451e-ac73-8f4efbc88b19",
        "meta": {
          "profile": [
            "http://mortalityreporting.github.io/nvdrs-ig/StructureDefinition/nvdrs-weapon-type"
          ]
        },
        "code": {
          "coding": [
            {
              "system": "http://mortalityreporting.github.io/nvdrs-ig/CodeSystem/nvdrs-custom-code-system",
              "code": "weapon-type",
              "display": "Type of Weapon"
            }
          ]
        },
        "subject": {
          "reference": "urn:uuid:283bb416-2854-427f-a611-1488098a3660"
        },
        "focus": [
          {
            "reference": "urn:uuid:845faf4a-7018-4654-817c-b42c481a26e6"
          }
        ],
        "valueCodeableConcept": {
          "coding": [
            {
              "system": "http://mortalityreporting.github.io/nvdrs-ig/CodeSystem/nvdrs-coding-manual-cs",
              "code": "WeaponType1",
              "display": "Firearm"
            }
          ]
        }
      }
    },
    {
      "fullUrl": "urn:uuid:845faf4a-7018-4654-817c-b42c481a26e6",
      "resource": {
        "resourceType": "Observation",
        "id": "845faf4a-7018-4654-817c-b42c481a26e6",
        "meta": {
          "lastUpdated": "2024-07-08T09:38:55.789249-04:00",
          "profile": [
            "http://mortalityreporting.github.io/nvdrs-ig/StructureDefinition/nvdrs-firearm"
          ]
        },
        "extension": [
          {
            "url": "http://mortalityreporting.github.io/nvdrs-ig/StructureDefinition/nvdrs-firearm-stolen-extension",
            "valueCodeableConcept": {
              "coding": [
                {
                  "system": "http://terminology.hl7.org/CodeSystem/v2-0136",
                  "code": "Y",
                  "display": "Yes"
                }
              ]
            }
          },
          {
            "url": "http://mortalityreporting.github.io/nvdrs-ig/StructureDefinition/nvdrs-gun-stored-loaded-extension",
            "valueCodeableConcept": {
              "coding": [
                {
                  "system": "http://terminology.hl7.org/CodeSystem/v2-0136",
                  "code": "Y",
                  "display": "Yes"
                }
              ]
            }
          },
          {
            "url": "http://mortalityreporting.github.io/nvdrs-ig/StructureDefinition/firearm-serial-number",
            "valueIdentifier": {
              "system": "urn:vdrs:ncic:serialnumber",
              "value": "5555555f"
            }
          },
          {
            "url": "http://mortalityreporting.github.io/nvdrs-ig/StructureDefinition/nvdrs-firearm-owner-extension",
            "extension": [
              {
                "url": "narrative",
                "valueString": "Narrative here"
              },
              {
                "url": "reference",
                "valueReference": {
                  "reference": "urn:uuid:2bde12fe-4f01-4ba1-87db-784a4294940b"
                }
              }
            ]
          }
        ],
        "category": [
          {
            "coding": [
              {
                "system": "http://mortalityreporting.github.io/nvdrs-ig/CodeSystem/nvdrs-custom-code-system",
                "code": "weapons",
                "display": "Weapon(s)"
              }
            ],
            "text": "Data elements that fall under the weapon(s) category"
          }
        ],
        "code": {
          "coding": [
            {
              "system": "http://mortalityreporting.github.io/nvdrs-ig/CodeSystem/nvdrs-custom-code-system",
              "code": "firearm",
              "display": "Details on Firearm"
            }
          ]
        },
        "subject": {
          "reference": "urn:uuid:283bb416-2854-427f-a611-1488098a3660"
        },
        "component": [
          {
            "code": {
              "coding": [
                {
                  "system": "http://mortalityreporting.github.io/nvdrs-ig/CodeSystem/nvdrs-custom-code-system",
                  "code": "firearm-type",
                  "display": "Firearm - Type"
                }
              ]
            },
            "valueCodeableConcept": {
              "coding": [
                {
                  "system": "http://mortalityreporting.github.io/nvdrs-ig/CodeSystem/nvdrs-coding-manual-cs",
                  "code": "FirearmType16",
                  "display": "Shotgun, Unknown Type"
                }
              ]
            }
          },
          {
            "code": {
              "coding": [
                {
                  "system": "http://mortalityreporting.github.io/nvdrs-ig/CodeSystem/nvdrs-custom-code-system",
                  "code": "firearm-make",
                  "display": "Firearm - Gun Make or NCIC Code"
                }
              ]
            },
            "valueString": "64"
          },
          {
            "code": {
              "coding": [
                {
                  "system": "http://mortalityreporting.github.io/nvdrs-ig/CodeSystem/nvdrs-custom-code-system",
                  "code": "firearm-model",
                  "display": "Firearm - Gun Model"
                }
              ]
            },
            "valueString": "512"
          },
          {
            "code": {
              "coding": [
                {
                  "system": "http://mortalityreporting.github.io/nvdrs-ig/CodeSystem/nvdrs-custom-code-system",
                  "code": "firearm-caliber",
                  "display": "Firearm - Caliber"
                }
              ]
            },
            "valueString": "556"
          }
        ]
      }
    },
    {
      "fullUrl": "urn:uuid:2bde12fe-4f01-4ba1-87db-784a4294940b",
      "resource": {
        "resourceType": "Person",
        "id": "2bde12fe-4f01-4ba1-87db-784a4294940b",
        "name": [
          {
            "family": "Brown",
            "given": [
              "Tiffany"
            ]
          }
        ]
      }
    },
    {
      "fullUrl": "urn:uuid:66c58228-0baa-42f5-8093-320920382d40",
      "resource": {
        "resourceType": "Observation",
        "id": "66c58228-0baa-42f5-8093-320920382d40",
        "meta": {
          "profile": [
            "http://hl7.org/fhir/us/mdi/StructureDefinition/Observation-mdi-cause-of-death-part1"
          ]
        },
        "status": "final",
        "code": {
          "coding": [
            {
              "system": "http://loinc.org",
              "code": "69453-9",
              "display": "Cause of death [US Standard Certificate of Death]"
            }
          ]
        },
        "subject": {
          "reference": "urn:uuid:283bb416-2854-427f-a611-1488098a3660"
        },
        "performer": [
          {
            "reference": "urn:uuid:ac069540-a993-11ed-afa1-0242ac120002"
          }
        ],
        "valueCodeableConcept": {
          "text": "Airway Occlusion - Chemical"
        },
        "component": [
          {
            "code": {
              "coding": [
                {
                  "system": "http://hl7.org/fhir/us/vrdr/CodeSystem/vrdr-component-cs",
                  "code": "lineNumber",
                  "display": "line number"
                }
              ]
            },
            "valueInteger": 1
          },
          {
            "code": {
              "coding": [
                {
                  "system": "http://loinc.org",
                  "code": "69440-6",
                  "display": "Disease onset to death interval"
                }
              ]
            },
            "valueString": "minutes"
          }
        ]
      }
    },
    {
      "fullUrl": "urn:uuid:07aab0b2-d28e-4eed-ac26-2388bde86721",
      "resource": {
        "resourceType": "Observation",
        "id": "07aab0b2-d28e-4eed-ac26-2388bde86721",
        "meta": {
          "profile": [
            "http://hl7.org/fhir/us/mdi/StructureDefinition/Observation-mdi-cause-of-death-part1"
          ]
        },
        "status": "final",
        "code": {
          "coding": [
            {
              "system": "http://loinc.org",
              "code": "69453-9",
              "display": "Cause of death [US Standard Certificate of Death]"
            }
          ]
        },
        "subject": {
          "reference": "urn:uuid:283bb416-2854-427f-a611-1488098a3660"
        },
        "performer": [
          {
            "reference": "urn:uuid:ac069540-a993-11ed-afa1-0242ac120002"
          }
        ],
        "valueCodeableConcept": {
          "text": "Aspiration of Food - Chemical"
        },
        "component": [
          {
            "code": {
              "coding": [
                {
                  "system": "http://hl7.org/fhir/us/vrdr/CodeSystem/vrdr-component-cs",
                  "code": "lineNumber",
                  "display": "line number"
                }
              ]
            },
            "valueInteger": 2
          },
          {
            "code": {
              "coding": [
                {
                  "system": "http://loinc.org",
                  "code": "69440-6",
                  "display": "Disease onset to death interval"
                }
              ]
            },
            "valueString": "minutes"
          }
        ]
      }
    },
    {
      "fullUrl": "urn:uuid:252a88dc-98ba-49b0-a71e-77b9e5969c93",
      "resource": {
        "resourceType": "Observation",
        "id": "252a88dc-98ba-49b0-a71e-77b9e5969c93",
        "meta": {
          "profile": [
            "http://hl7.org/fhir/us/mdi/StructureDefinition/Observation-mdi-cause-of-death-part1"
          ]
        },
        "status": "final",
        "code": {
          "coding": [
            {
              "system": "http://loinc.org",
              "code": "69453-9",
              "display": "Cause of death [US Standard Certificate of Death]"
            }
          ]
        },
        "subject": {
          "reference": "urn:uuid:283bb416-2854-427f-a611-1488098a3660"
        },
        "performer": [
          {
            "reference": "urn:uuid:ac069540-a993-11ed-afa1-0242ac120002"
          }
        ],
        "valueCodeableConcept": {
          "text": "Burns - Thermal"
        },
        "component": [
          {
            "code": {
              "coding": [
                {
                  "system": "http://hl7.org/fhir/us/vrdr/CodeSystem/vrdr-component-cs",
                  "code": "lineNumber",
                  "display": "line number"
                }
              ]
            },
            "valueInteger": 3
          },
          {
            "code": {
              "coding": [
                {
                  "system": "http://loinc.org",
                  "code": "69440-6",
                  "display": "Disease onset to death interval"
                }
              ]
            },
            "valueString": "minutes"
          }
        ]
      }
    },
    {
      "fullUrl": "urn:uuid:edc212ef-ff56-498f-a317-77ad331e4676",
      "resource": {
        "resourceType": "Observation",
        "id": "edc212ef-ff56-498f-a317-77ad331e4676",
        "meta": {
          "profile": [
            "http://hl7.org/fhir/us/mdi/StructureDefinition/Observation-mdi-cause-of-death-part1"
          ]
        },
        "status": "final",
        "code": {
          "coding": [
            {
              "system": "http://loinc.org",
              "code": "69453-9",
              "display": "Cause of death [US Standard Certificate of Death]"
            }
          ]
        },
        "subject": {
          "reference": "urn:uuid:283bb416-2854-427f-a611-1488098a3660"
        },
        "performer": [
          {
            "reference": "urn:uuid:ac069540-a993-11ed-afa1-0242ac120002"
          }
        ],
        "valueCodeableConcept": {
          "text": "Cardiac - Ruptured Aortic Aneurysm"
        },
        "component": [
          {
            "code": {
              "coding": [
                {
                  "system": "http://hl7.org/fhir/us/vrdr/CodeSystem/vrdr-component-cs",
                  "code": "lineNumber",
                  "display": "line number"
                }
              ]
            },
            "valueInteger": 4
          },
          {
            "code": {
              "coding": [
                {
                  "system": "http://loinc.org",
                  "code": "69440-6",
                  "display": "Disease onset to death interval"
                }
              ]
            },
            "valueString": "minutes"
          }
        ]
      }
    },
    {
      "fullUrl": "urn:uuid:4972fe61-5f29-4b38-9ac1-c2431bb84274",
      "resource": {
        "resourceType": "Observation",
        "id": "4972fe61-5f29-4b38-9ac1-c2431bb84274",
        "meta": {
          "profile": [
            "http://hl7.org/fhir/us/vrdr/StructureDefinition/vrdr-cause-of-death-part2"
          ]
        },
        "status": "final",
        "code": {
          "coding": [
            {
              "system": "http://loinc.org",
              "code": "69441-4",
              "display": "Other significant causes or conditions of death"
            }
          ]
        },
        "subject": {
          "reference": "urn:uuid:283bb416-2854-427f-a611-1488098a3660"
        },
        "performer": [
          {
            "reference": "urn:uuid:ac069540-a993-11ed-afa1-0242ac120002"
          }
        ],
        "valueCodeableConcept": {
          "text": "other cause"
        }
      }
    },
    {
      "fullUrl": "urn:uuid:56d02f57-a980-4250-8d3e-d0aaadcde8b5",
      "resource": {
        "resourceType": "Procedure",
        "id": "56d02f57-a980-4250-8d3e-d0aaadcde8b5",
        "meta": {
          "profile": [
            "http://hl7.org/fhir/us/vrdr/StructureDefinition/vrdr-death-certification"
          ]
        },
        "code": {
          "coding": [
            {
              "system": "http://snomed.info/sct",
              "code": "308646001"
            }
          ]
        },
        "subject": {
          "reference": "urn:uuid:283bb416-2854-427f-a611-1488098a3660"
        },
        "performer": [
          {
            "function": {
              "coding": [
                {
                  "system": "http://snomed.info/sct",
                  "code": "455381000124109",
                  "display": "Death certification by medical examiner or coroner (procedure)"
                }
              ]
            },
            "actor": {
              "reference": "urn:uuid:ac069540-a993-11ed-afa1-0242ac120002"
            }
          }
        ]
      }
    },
    {
      "fullUrl": "urn:uuid:293ff5a3-6615-4560-9daf-7f1087b419ed",
      "resource": {
        "resourceType": "Observation",
        "id": "293ff5a3-6615-4560-9daf-7f1087b419ed",
        "meta": {
          "profile": [
            "http://hl7.org/fhir/us/core/StructureDefinition/us-core-body-height"
          ]
        },
        "category": [
          {
            "coding": [
              {
                "system": "http://terminology.hl7.org/CodeSystem/observation-category",
                "code": "vital-signs"
              }
            ]
          }
        ],
        "code": {
          "coding": [
            {
              "system": "http://loinc.org",
              "code": "8302-2"
            }
          ]
        },
        "effectiveDate": "2024-07-02",
        "valueQuantity": {
          "value": 2590.8,
          "unit": "cm",
          "system": "http://unitsofmeasure.org",
          "code": "cm"
        }
      }
    },
    {
      "fullUrl": "urn:uuid:349792ed-a72a-4009-8238-5d2c00f5f894",
      "resource": {
        "resourceType": "Observation",
        "id": "349792ed-a72a-4009-8238-5d2c00f5f894",
        "meta": {
          "profile": [
            "http://hl7.org/fhir/us/core/StructureDefinition/us-core-body-weight"
          ]
        },
        "category": [
          {
            "coding": [
              {
                "system": "http://terminology.hl7.org/CodeSystem/observation-category",
                "code": "vital-signs"
              }
            ]
          }
        ],
        "code": {
          "coding": [
            {
              "system": "http://loinc.org",
              "code": "29463-7"
            }
          ]
        },
        "effectiveDate": "2024-07-02",
        "valueQuantity": {
          "value": 185,
          "unit": "lb_av",
          "system": "http://unitsofmeasure.org",
          "code": "[lb_av]"
        }
      }
    },
    {
      "fullUrl": "urn:uuid:70522ad6-0403-466b-8592-d0362477fd0c",
      "resource": {
        "resourceType": "Observation",
        "id": "70522ad6-0403-466b-8592-d0362477fd0c",
        "meta": {
          "profile": [
            "http://mortalityreporting.github.io/nvdrs-ig/StructureDefinition/vdrs-number-of-victims"
          ]
        },
        "code": {
          "coding": [
            {
              "system": "http://mortalityreporting.github.io/nvdrs-ig/CodeSystem/nvdrs-custom-code-system",
              "code": "number-of-victims",
              "display": "Number of Victims (Non Fatal)"
            }
          ]
        },
        "subject": {
          "reference": "urn:uuid:283bb416-2854-427f-a611-1488098a3660"
        },
        "valueInteger": 34
      }
    }
  ]
}