{
  "resourceType": "Bundle",
  "id": "6d9beb96-3edd-4344-8976-e8e46796c26c",
  "meta": {
    "profile": [
      "http://mortalityreporting.github.io/nvdrs-ig/StructureDefinition/nvdrs-document-bundle"
    ]
  },
  "identifier": {
    "system": "urn:gtri:heat-hisp:nvdrs-testing",
    "value": "urn:uuid:79403559-aff1-4515-bdef-c60c2b11e93c"
  },
  "type": "document",
  "timestamp": "2024-07-24T11:19:01.139073-04:00",
  "entry": [
    {
      "fullUrl": "urn:uuid:d5a4f30b-225a-4bbf-9363-77cf2a02ecca",
      "resource": {
        "resourceType": "Composition",
        "id": "d5a4f30b-225a-4bbf-9363-77cf2a02ecca",
        "meta": {
          "profile": [
            "http://mortalityreporting.github.io/nvdrs-ig/StructureDefinition/nvdrs-composition"
          ]
        },
        "extension": [
          {
            "url": "http://mortalityreporting.github.io/nvdrs-ig/StructureDefinition/nvdrs-force-new-record-extension",
            "valueBoolean": true
          }
        ],
        "status": "final",
        "type": {
          "coding": [
            {
              "system": "http://mortalityreporting.github.io/nvdrs-ig/CodeSystem/nvdrs-custom-code-system",
              "code": "cme-report",
              "display": "C/ME Report"
            }
          ]
        },
        "subject": {
          "reference": "urn:uuid:de80f131-9c3d-442b-b2ff-c86752334ac9"
        },
        "date": "2024-07-24T11:19:01.099766-04:00",
        "author": [
          {
            "reference": "urn:uuid:ac069540-a993-11ed-afa1-0242ac120002"
          }
        ],
        "title": "NVDRS Document",
        "section": [
          {
            "title": "Injury and Death",
            "code": {
              "coding": [
                {
                  "system": "http://mortalityreporting.github.io/nvdrs-ig/CodeSystem/nvdrs-custom-code-system",
                  "code": "injury-and-death",
                  "display": "Injury and Death"
                }
              ]
            },
            "entry": [
              {
                "reference": "urn:uuid:3b6a390e-e208-49aa-a46e-6226eb4e4173"
              },
              {
                "reference": "urn:uuid:e61abbcb-1a86-404b-842e-066898cb7256"
              },
              {
                "reference": "urn:uuid:ee6d5f05-b10d-4699-884d-9b809e23555a"
              },
              {
                "reference": "urn:uuid:319a57e2-2878-452b-b308-5d8af0312f45"
              },
              {
                "reference": "urn:uuid:584af92a-3dce-45ae-be24-c9f95db1b116"
              },
              {
                "reference": "urn:uuid:3288f580-fcec-4e73-83f4-b42b5c4421d6"
              }
            ]
          },
          {
            "title": "Circumstances",
            "code": {
              "coding": [
                {
                  "system": "http://mortalityreporting.github.io/nvdrs-ig/CodeSystem/nvdrs-custom-code-system",
                  "code": "circumstances",
                  "display": "Circumstances"
                }
              ]
            },
            "entry": [
              {
                "reference": "urn:uuid:49df7bbc-6891-4123-afe9-f9c6d9fcca45"
              },
              {
                "reference": "urn:uuid:04d09dd5-0cd4-44a9-bf43-6ce0b90896b5"
              },
              {
                "reference": "urn:uuid:e4ccf863-b45b-4037-8e5a-0c9dba130ac8"
              },
              {
                "reference": "urn:uuid:a9e7742f-d59a-4db3-8389-78dcd15a49fe"
              },
              {
                "reference": "urn:uuid:650589e5-da54-4988-b158-da62da776f6f"
              },
              {
                "reference": "urn:uuid:b5e1caec-9f7c-4801-91a3-c72edabb7481"
              },
              {
                "reference": "urn:uuid:7760120f-4b58-4fe4-98ea-6f6452f72314"
              },
              {
                "reference": "urn:uuid:1ed52845-f6a2-49e2-a3d6-8920d8791f9d"
              },
              {
                "reference": "urn:uuid:27beee4b-ce9d-42ba-badf-04d1829f4a1f"
              },
              {
                "reference": "urn:uuid:6b69122c-60ce-4cfd-badf-e834f9f99c17"
              },
              {
                "reference": "urn:uuid:5c70713c-2c16-45f7-b3cb-ec33c9679737"
              },
              {
                "reference": "urn:uuid:b29dcf76-362f-4ed1-b4ee-086adc41c5d4"
              },
              {
                "reference": "urn:uuid:1f374d1e-67a3-4a20-95fe-db01dbcdeab6"
              }
            ]
          },
          {
            "title": "Toxicology",
            "code": {
              "coding": [
                {
                  "system": "http://mortalityreporting.github.io/nvdrs-ig/CodeSystem/nvdrs-custom-code-system",
                  "code": "toxicology",
                  "display": "Toxicology"
                }
              ]
            },
            "entry": [
              {
                "reference": "urn:uuid:14d34821-b09d-4630-99a6-1aaf30461a30"
              },
              {
                "reference": "urn:uuid:bdec2623-875f-4dd8-8ea1-2a57b4a5a057"
              },
              {
                "reference": "urn:uuid:4c8e7a8c-68d9-4e97-a0c2-5d2a811f1d67"
              },
              {
                "reference": "urn:uuid:3f570668-40b7-48e4-b959-724231ac15ac"
              },
              {
                "reference": "urn:uuid:21861bd5-2c25-4009-98ef-ede863807442"
              },
              {
                "reference": "urn:uuid:60c2397b-172c-4240-a200-92a95c4721f7"
              }
            ]
          },
          {
            "title": "Demographics",
            "code": {
              "coding": [
                {
                  "system": "http://mortalityreporting.github.io/nvdrs-ig/CodeSystem/nvdrs-custom-code-system",
                  "code": "demographics",
                  "display": "Demographics"
                }
              ]
            },
            "entry": [
              {
                "reference": "urn:uuid:a83cc4c3-84ba-4674-a428-3a9697064fbd"
              },
              {
                "reference": "urn:uuid:a48bd450-638f-4aff-9b6f-48ff939ebd6e"
              },
              {
                "reference": "urn:uuid:cfd7f39e-e367-4d13-b430-a99afb910280"
              },
              {
                "reference": "urn:uuid:97c78c0c-3ad1-41a2-85bb-fd0d2c2d5dde"
              },
              {
                "reference": "urn:uuid:2590d6e3-54d4-472e-ab8f-17bb73613a24"
              }
            ]
          },
          {
            "title": "Weapon(s)",
            "code": {
              "coding": [
                {
                  "system": "http://mortalityreporting.github.io/nvdrs-ig/CodeSystem/nvdrs-custom-code-system",
                  "code": "weapons",
                  "display": "Weapon(s)"
                }
              ]
            },
            "entry": [
              {
                "reference": "urn:uuid:fe0ecc2c-2593-4c1d-b886-12720d83f6e6"
              }
            ]
          },
          {
            "title": "Cause and Manner of Death Section",
            "code": {
              "coding": [
                {
                  "system": "http://hl7.org/fhir/us/mdi/CodeSystem/CodeSystem-vr-codes",
                  "code": "cause-manner",
                  "display": "Cause and Manner of Death Section"
                }
              ]
            },
            "entry": [
              {
                "reference": "urn:uuid:dd6d2a82-9b14-41d5-ad82-65d010ecfe93"
              },
              {
                "reference": "urn:uuid:a932df1f-5751-42ba-93ac-5051c182c1b6"
              },
              {
                "reference": "urn:uuid:abedd310-5c4c-46bd-a29a-ce93af5493ec"
              },
              {
                "reference": "urn:uuid:1a16945b-8148-42a6-b9ba-89042b9e32a0"
              },
              {
                "reference": "urn:uuid:fe89036f-0aa4-4e89-ae72-ca36d8bfaec3"
              }
            ]
          },
          {
            "title": "Jurisdiction Section",
            "code": {
              "coding": [
                {
                  "system": "http://hl7.org/fhir/us/mdi/CodeSystem/CodeSystem-vr-codes",
                  "code": "jurisdiction",
                  "display": "Jurisdiction Section"
                }
              ]
            },
            "entry": [
              {
                "reference": "urn:uuid:6cc94f4e-a3fe-40d2-912e-69459b123de7"
              }
            ]
          },
          {
            "title": "Appendix",
            "code": {
              "coding": [
                {
                  "system": "urn:vdrs:document-sections",
                  "code": "appenddix",
                  "display": "Appendix"
                }
              ]
            },
            "entry": [
              {
                "reference": "urn:uuid:ae7efd08-6f5e-434e-9f74-4ba331a26524"
              }
            ]
          }
        ]
      }
    },
    {
      "fullUrl": "urn:uuid:de80f131-9c3d-442b-b2ff-c86752334ac9",
      "resource": {
        "resourceType": "Patient",
        "id": "de80f131-9c3d-442b-b2ff-c86752334ac9",
        "meta": {
          "lastUpdated": "2024-07-24T11:19:01.073452-04:00",
          "profile": [
            "http://mortalityreporting.github.io/nvdrs-ig/StructureDefinition/nvdrs-decedent"
          ]
        },
        "extension": [
          {
            "url": "http://hl7.org/fhir/us/core/StructureDefinition/us-core-race",
            "extension": [
              {
                "url": "ombCategory",
                "valueCoding": {
                  "system": "http://terminology.hl7.org/CodeSystem/v3-NullFlavor",
                  "code": "UNK",
                  "display": "unknown"
                }
              },
              {
                "url": "detailed",
                "valueCoding": {
                  "system": "http://terminology.hl7.org/CodeSystem/v3-NullFlavor",
                  "code": "UNK",
                  "display": "unknown"
                }
              },
              {
                "url": "text",
                "valueString": "unknown"
              }
            ]
          },
          {
            "url": "http://hl7.org/fhir/us/core/StructureDefinition/us-core-ethnicity",
            "extension": [
              {
                "url": "ombCategory",
                "valueCoding": {
                  "system": "urn:oid:2.16.840.1.113883.6.238",
                  "code": "2135-2",
                  "display": "Hispanic or Latino"
                }
              },
              {
                "url": "detailed",
                "valueCoding": {
                  "system": "urn:oid:2.16.840.1.113883.6.238",
                  "code": "2149-3",
                  "display": "Mexican American"
                }
              },
              {
                "url": "text",
                "valueString": "Mexican American"
              }
            ]
          }
        ],
        "identifier": [
          {
            "use": "usual",
            "type": {
              "coding": [
                {
                  "system": "http://terminology.hl7.org/CodeSystem/v2-0203",
                  "code": "SB",
                  "display": "Social Beneficiary Identifier"
                }
              ]
            },
            "system": "http://hl7.org/fhir/sid/us-ssn",
            "value": "55555555"
          }
        ],
        "name": [
          {
            "use": "official",
            "family": "Cane",
            "given": [
              "Jhon",
              "Michael"
            ],
            "suffix": [
              "First"
            ]
          },
          {
            "use": "nickname",
            "family": "NameAKA"
          }
        ],
        "gender": "male",
        "birthDate": "2000-04-23",
        "address": [
          {
            "line": [
              "9127 Katy Freeway"
            ],
            "city": "Houston",
            "state": "TX",
            "postalCode": "77024",
            "country": "US"
          }
        ]
      }
    },
    {
      "fullUrl": "urn:uuid:ac069540-a993-11ed-afa1-0242ac120002",
      "resource": {
        "resourceType": "Practitioner",
        "id": "ac069540-a993-11ed-afa1-0242ac120002",
        "meta": {
          "lastUpdated": "2024-07-24T11:19:01.09045-04:00",
          "profile": [
            "http://hl7.org/fhir/us/vrdr/StructureDefinition/vrdr-certifier"
          ]
        },
        "extension": [
          {
            "url": "http://hl7.org/fhir/us/vrdr/StructureDefinition/practitioner-role",
            "valueCode": "Certifier"
          }
        ],
        "identifier": [
          {
            "system": "http://hl7.org/fhir/sid/us-npi",
            "value": "3333445555"
          }
        ],
        "name": [
          {
            "use": "official",
            "family": "Jones",
            "given": [
              "Sam"
            ],
            "prefix": [
              "Dr"
            ]
          }
        ],
        "telecom": [
          {
            "system": "phone",
            "value": "134-456-7890",
            "use": "work"
          }
        ],
        "address": [
          {
            "extension": [
              {
                "url": "http://hl7.org/fhir/us/vr-common-library/StructureDefinition/StreetName",
                "valueString": "Olympic Blvd"
              }
            ],
            "use": "work",
            "type": "physical",
            "line": [
              "567 Coda Blvd"
            ],
            "city": "Atlanta",
            "district": "Fulton County",
            "_district": {
              "extension": [
                {
                  "url": "http://hl7.org/fhir/us/vr-common-library/StructureDefinition/DistrictCode",
                  "valuePositiveInt": 4000
                }
              ]
            },
            "state": "GA",
            "postalCode": "30318",
            "country": "US"
          }
        ]
      }
    },
    {
      "fullUrl": "urn:uuid:3b6a390e-e208-49aa-a46e-6226eb4e4173",
      "resource": {
        "resourceType": "Observation",
        "id": "3b6a390e-e208-49aa-a46e-6226eb4e4173",
        "meta": {
          "lastUpdated": "2024-07-24T11:19:01.110184-04:00",
          "profile": [
            "http://mortalityreporting.github.io/nvdrs-ig/StructureDefinition/nvdrs-ems-at-scene"
          ]
        },
        "status": "final",
        "category": [
          {
            "coding": [
              {
                "system": "http://mortalityreporting.github.io/nvdrs-ig/CodeSystem/nvdrs-custom-code-system",
                "code": "injury-and-death",
                "display": "Injury and Death"
              }
            ],
            "text": "Data elements that fall under the injury and death category"
          }
        ],
        "code": {
          "coding": [
            {
              "system": "http://mortalityreporting.github.io/nvdrs-ig/CodeSystem/nvdrs-custom-code-system",
              "code": "ems-at-scene",
              "display": "EMS at Scene"
            }
          ]
        },
        "subject": {
          "reference": "urn:uuid:de80f131-9c3d-442b-b2ff-c86752334ac9"
        },
        "valueCodeableConcept": {
          "coding": [
            {
              "system": "http://terminology.hl7.org/CodeSystem/v2-0136",
              "code": "Y",
              "display": "Yes"
            }
          ]
        }
      }
    },
    {
      "fullUrl": "urn:uuid:e61abbcb-1a86-404b-842e-066898cb7256",
      "resource": {
        "resourceType": "Observation",
        "id": "e61abbcb-1a86-404b-842e-066898cb7256",
        "meta": {
          "lastUpdated": "2024-07-24T11:19:01.112372-04:00",
          "profile": [
            "http://mortalityreporting.github.io/nvdrs-ig/StructureDefinition/nvdrs-number-of-bullets"
          ]
        },
        "status": "final",
        "category": [
          {
            "coding": [
              {
                "system": "http://mortalityreporting.github.io/nvdrs-ig/CodeSystem/nvdrs-custom-code-system",
                "code": "injury-and-death",
                "display": "Injury and Death"
              }
            ],
            "text": "Data elements that fall under the injury and death category"
          }
        ],
        "code": {
          "coding": [
            {
              "system": "http://mortalityreporting.github.io/nvdrs-ig/CodeSystem/nvdrs-custom-code-system",
              "code": "number-of-bullets",
              "display": "Number of Bullets"
            }
          ]
        },
        "subject": {
          "reference": "urn:uuid:de80f131-9c3d-442b-b2ff-c86752334ac9"
        },
        "valueInteger": 3
      }
    },
    {
      "fullUrl": "urn:uuid:ee6d5f05-b10d-4699-884d-9b809e23555a",
      "resource": {
        "resourceType": "Observation",
        "id": "ee6d5f05-b10d-4699-884d-9b809e23555a",
        "meta": {
          "lastUpdated": "2024-07-24T11:19:01.112574-04:00",
          "profile": [
            "http://mortalityreporting.github.io/nvdrs-ig/StructureDefinition/nvdrs-victim-in-custody-when-injured"
          ]
        },
        "status": "final",
        "category": [
          {
            "coding": [
              {
                "system": "http://mortalityreporting.github.io/nvdrs-ig/CodeSystem/nvdrs-custom-code-system",
                "code": "injury-and-death",
                "display": "Injury and Death"
              }
            ],
            "text": "Data elements that fall under the injury and death category"
          }
        ],
        "code": {
          "coding": [
            {
              "system": "http://mortalityreporting.github.io/nvdrs-ig/CodeSystem/nvdrs-custom-code-system",
              "code": "victim-in-custody-when-injured",
              "display": "Victim in custody when injured"
            }
          ]
        },
        "subject": {
          "reference": "urn:uuid:de80f131-9c3d-442b-b2ff-c86752334ac9"
        },
        "valueCodeableConcept": {
          "coding": [
            {
              "system": "http://terminology.hl7.org/CodeSystem/v2-0136",
              "code": "Y",
              "display": "Yes"
            }
          ]
        }
      }
    },
    {
      "fullUrl": "urn:uuid:319a57e2-2878-452b-b308-5d8af0312f45",
      "resource": {
        "resourceType": "Observation",
        "id": "319a57e2-2878-452b-b308-5d8af0312f45",
        "meta": {
          "profile": [
            "http://hl7.org/fhir/us/vrdr/StructureDefinition/vrdr-injury-incident"
          ]
        },
        "status": "final",
        "code": {
          "coding": [
            {
              "system": "http://loinc.org",
              "code": "11374-6"
            }
          ]
        },
        "subject": {
          "reference": "urn:uuid:de80f131-9c3d-442b-b2ff-c86752334ac9"
        },
        "component": [
          {
            "code": {
              "coding": [
                {
                  "system": "http://loinc.org",
                  "code": "69444-8"
                }
              ]
            },
            "valueCodeableConcept": {
              "coding": [
                {
                  "system": "http://terminology.hl7.org/CodeSystem/v2-0136",
                  "code": "Y",
                  "display": "Yes"
                }
              ]
            }
          },
          {
            "code": {
              "coding": [
                {
                  "system": "http://loinc.org",
                  "code": "69450-5"
                }
              ]
            },
            "valueString": "company"
          },
          {
            "code": {
              "coding": [
                {
                  "system": "http://loinc.org",
                  "code": "69451-3"
                }
              ]
            },
            "valueCodeableConcept": {
              "coding": [
                {
                  "system": "http://terminology.hl7.org/CodeSystem/v3-NullFlavor",
                  "code": "OTH",
                  "display": "other"
                }
              ],
              "text": "Rear Right"
            }
          }
        ]
      }
    },
    {
      "fullUrl": "urn:uuid:584af92a-3dce-45ae-be24-c9f95db1b116",
      "resource": {
        "resourceType": "Location",
        "id": "584af92a-3dce-45ae-be24-c9f95db1b116",
        "meta": {
          "profile": [
            "http://hl7.org/fhir/us/vr-common-library/StructureDefinition/Location-vr"
          ]
        },
        "type": [
          {
            "coding": [
              {
                "system": "http://hl7.org/fhir/us/vrdr/CodeSystem/vrdr-location-type-cs",
                "code": "injury",
                "display": "Injury Location"
              }
            ]
          }
        ],
        "address": {
          "line": [
            "27421 Valley Center Road"
          ],
          "city": "Valley Center",
          "district": "San Diego",
          "state": "California",
          "postalCode": "92082",
          "country": "United States"
        }
      }
    },
    {
      "fullUrl": "urn:uuid:3288f580-fcec-4e73-83f4-b42b5c4421d6",
      "resource": {
        "resourceType": "Observation",
        "id": "3288f580-fcec-4e73-83f4-b42b5c4421d6",
        "meta": {
          "profile": [
            "http://hl7.org/fhir/us/vr-common-library/StructureDefinition/Observation-autopsy-performed-indicator-vr"
          ]
        },
        "status": "final",
        "code": {
          "coding": [
            {
              "system": "http://loinc.org",
              "code": "85699-7",
              "display": "Autopsy was performed"
            }
          ]
        },
        "subject": {
          "reference": "urn:uuid:de80f131-9c3d-442b-b2ff-c86752334ac9"
        },
        "valueCodeableConcept": {
          "coding": [
            {
              "system": "http://terminology.hl7.org/CodeSystem/v2-0136",
              "code": "N",
              "display": "No"
            }
          ]
        }
      }
    },
    {
      "fullUrl": "urn:uuid:49df7bbc-6891-4123-afe9-f9c6d9fcca45",
      "resource": {
        "resourceType": "Observation",
        "id": "49df7bbc-6891-4123-afe9-f9c6d9fcca45",
        "meta": {
          "profile": [
            "http://mortalityreporting.github.io/nvdrs-ig/StructureDefinition/nvdrs-circumstances",
            "http://mortalityreporting.github.io/nvdrs-ig/StructureDefinition/nvdrs-current-depressed-mood"
          ]
        },
        "status": "final",
        "category": [
          {
            "coding": [
              {
                "system": "http://mortalityreporting.github.io/nvdrs-ig/CodeSystem/nvdrs-custom-code-system",
                "code": "circumstances",
                "display": "Circumstances"
              }
            ],
            "text": "Data elements that fall under the circumstances category"
          }
        ],
        "code": {
          "coding": [
            {
              "system": "http://mortalityreporting.github.io/nvdrs-ig/CodeSystem/nvdrs-custom-code-system",
              "code": "current-depressed-mood",
              "display": "Current depressed mood"
            }
          ]
        },
        "subject": {
          "reference": "urn:uuid:de80f131-9c3d-442b-b2ff-c86752334ac9"
        },
        "valueCodeableConcept": {
          "coding": [
            {
              "system": "http://terminology.hl7.org/CodeSystem/v2-0136",
              "code": "Y",
              "display": "Yes"
            }
          ]
        }
      }
    },
    {
      "fullUrl": "urn:uuid:04d09dd5-0cd4-44a9-bf43-6ce0b90896b5",
      "resource": {
        "resourceType": "Observation",
        "id": "04d09dd5-0cd4-44a9-bf43-6ce0b90896b5",
        "meta": {
          "profile": [
            "http://mortalityreporting.github.io/nvdrs-ig/StructureDefinition/vdrs-history-of-mental-illness"
          ]
        },
        "status": "final",
        "code": {
          "coding": [
            {
              "system": "http://mortalityreporting.github.io/nvdrs-ig/CodeSystem/nvdrs-custom-code-system",
              "code": "history-of-mental-illness",
              "display": "History of Mental Illness"
            }
          ]
        },
        "subject": {
          "reference": "urn:uuid:de80f131-9c3d-442b-b2ff-c86752334ac9"
        },
        "valueCodeableConcept": {
          "coding": [
            {
              "system": "http://terminology.hl7.org/CodeSystem/v2-0136",
              "code": "Y",
              "display": "Yes"
            }
          ]
        }
      }
    },
    {
      "fullUrl": "urn:uuid:e4ccf863-b45b-4037-8e5a-0c9dba130ac8",
      "resource": {
        "resourceType": "Observation",
        "id": "e4ccf863-b45b-4037-8e5a-0c9dba130ac8",
        "meta": {
          "lastUpdated": "2024-07-24T11:19:01.116745-04:00",
          "profile": [
            "http://mortalityreporting.github.io/nvdrs-ig/StructureDefinition/nvdrs-history-of-self-harm"
          ]
        },
        "status": "final",
        "category": [
          {
            "coding": [
              {
                "system": "http://mortalityreporting.github.io/nvdrs-ig/CodeSystem/nvdrs-custom-code-system",
                "code": "circumstances",
                "display": "Circumstances"
              }
            ],
            "text": "Data elements that fall under the circumstances category"
          }
        ],
        "code": {
          "coding": [
            {
              "system": "http://mortalityreporting.github.io/nvdrs-ig/CodeSystem/nvdrs-custom-code-system",
              "code": "self-harm",
              "display": "Non-suicidal self-Injury/self-harm"
            }
          ],
          "text": "History of non-suicidal self-Injury/self-harm"
        },
        "subject": {
          "reference": "urn:uuid:de80f131-9c3d-442b-b2ff-c86752334ac9"
        },
        "valueCodeableConcept": {
          "coding": [
            {
              "system": "http://terminology.hl7.org/CodeSystem/v2-0136",
              "code": "Y",
              "display": "Yes"
            }
          ]
        }
      }
    },
    {
      "fullUrl": "urn:uuid:a9e7742f-d59a-4db3-8389-78dcd15a49fe",
      "resource": {
        "resourceType": "Observation",
        "id": "a9e7742f-d59a-4db3-8389-78dcd15a49fe",
        "meta": {
          "lastUpdated": "2024-07-24T11:19:01.116831-04:00",
          "profile": [
            "http://mortalityreporting.github.io/nvdrs-ig/StructureDefinition/nvdrs-random-violence"
          ]
        },
        "status": "final",
        "category": [
          {
            "coding": [
              {
                "system": "http://mortalityreporting.github.io/nvdrs-ig/CodeSystem/nvdrs-custom-code-system",
                "code": "circumstances",
                "display": "Circumstances"
              }
            ],
            "text": "Data elements that fall under the circumstances category"
          }
        ],
        "code": {
          "coding": [
            {
              "system": "http://mortalityreporting.github.io/nvdrs-ig/CodeSystem/nvdrs-custom-code-system",
              "code": "random-violence",
              "display": "Incident is Random Violence"
            }
          ]
        },
        "subject": {
          "reference": "urn:uuid:de80f131-9c3d-442b-b2ff-c86752334ac9"
        },
        "valueCodeableConcept": {
          "coding": [
            {
              "system": "http://terminology.hl7.org/CodeSystem/v2-0136",
              "code": "Y",
              "display": "Yes"
            }
          ]
        }
      }
    },
    {
      "fullUrl": "urn:uuid:650589e5-da54-4988-b158-da62da776f6f",
      "resource": {
        "resourceType": "Observation",
        "id": "650589e5-da54-4988-b158-da62da776f6f",
        "meta": {
          "lastUpdated": "2024-07-24T11:19:01.116918-04:00",
          "profile": [
            "http://mortalityreporting.github.io/nvdrs-ig/StructureDefinition/nvdrs-school-problem"
          ]
        },
        "status": "final",
        "category": [
          {
            "coding": [
              {
                "system": "http://mortalityreporting.github.io/nvdrs-ig/CodeSystem/nvdrs-custom-code-system",
                "code": "circumstances",
                "display": "Circumstances"
              }
            ],
            "text": "Data elements that fall under the circumstances category"
          }
        ],
        "code": {
          "coding": [
            {
              "system": "http://mortalityreporting.github.io/nvdrs-ig/CodeSystem/nvdrs-custom-code-system",
              "code": "school-problem",
              "display": "School Problem"
            }
          ]
        },
        "subject": {
          "reference": "urn:uuid:de80f131-9c3d-442b-b2ff-c86752334ac9"
        },
        "valueCodeableConcept": {
          "coding": [
            {
              "system": "http://terminology.hl7.org/CodeSystem/v2-0136",
              "code": "Y",
              "display": "Yes"
            }
          ]
        }
      }
    },
    {
      "fullUrl": "urn:uuid:b5e1caec-9f7c-4801-91a3-c72edabb7481",
      "resource": {
        "resourceType": "Observation",
        "id": "b5e1caec-9f7c-4801-91a3-c72edabb7481",
        "meta": {
          "lastUpdated": "2024-07-24T11:19:01.116996-04:00",
          "profile": [
            "http://mortalityreporting.github.io/nvdrs-ig/StructureDefinition/nvdrs-history-of-suicide-attempts"
          ]
        },
        "status": "final",
        "category": [
          {
            "coding": [
              {
                "system": "http://mortalityreporting.github.io/nvdrs-ig/CodeSystem/nvdrs-custom-code-system",
                "code": "circumstances",
                "display": "Circumstances"
              }
            ],
            "text": "Data elements that fall under the circumstances category"
          }
        ],
        "code": {
          "coding": [
            {
              "system": "http://mortalityreporting.github.io/nvdrs-ig/CodeSystem/nvdrs-custom-code-system",
              "code": "history-of-suicide-attempts",
              "display": "History of Suicide Attempts"
            }
          ]
        },
        "subject": {
          "reference": "urn:uuid:de80f131-9c3d-442b-b2ff-c86752334ac9"
        },
        "valueCodeableConcept": {
          "coding": [
            {
              "system": "http://terminology.hl7.org/CodeSystem/v2-0136",
              "code": "Y",
              "display": "Yes"
            }
          ]
        }
      }
    },
    {
      "fullUrl": "urn:uuid:7760120f-4b58-4fe4-98ea-6f6452f72314",
      "resource": {
        "resourceType": "Observation",
        "id": "7760120f-4b58-4fe4-98ea-6f6452f72314",
        "meta": {
          "profile": [
            "http://mortalityreporting.github.io/nvdrs-ig/StructureDefinition/vdrs-suicide-note"
          ]
        },
        "status": "final",
        "code": {
          "coding": [
            {
              "system": "http://mortalityreporting.github.io/nvdrs-ig/CodeSystem/nvdrs-custom-code-system",
              "code": "suicide-note",
              "display": "Suicide Note"
            }
          ]
        },
        "subject": {
          "reference": "urn:uuid:de80f131-9c3d-442b-b2ff-c86752334ac9"
        },
        "valueString": "Sorry.. I am ..."
      }
    },
    {
      "fullUrl": "urn:uuid:1ed52845-f6a2-49e2-a3d6-8920d8791f9d",
      "resource": {
        "resourceType": "Observation",
        "id": "1ed52845-f6a2-49e2-a3d6-8920d8791f9d",
        "meta": {
          "lastUpdated": "2024-07-24T11:19:01.117183-04:00",
          "profile": [
            "http://mortalityreporting.github.io/nvdrs-ig/StructureDefinition/nvdrs-history-alcohol-use"
          ]
        },
        "status": "final",
        "category": [
          {
            "coding": [
              {
                "system": "http://mortalityreporting.github.io/nvdrs-ig/CodeSystem/nvdrs-custom-code-system",
                "code": "circumstances",
                "display": "Circumstances"
              }
            ],
            "text": "Data elements that fall under the circumstances category"
          }
        ],
        "code": {
          "coding": [
            {
              "system": "http://loinc.org",
              "code": "11331-6",
              "display": "History of Alcohol Use"
            }
          ]
        },
        "subject": {
          "reference": "urn:uuid:de80f131-9c3d-442b-b2ff-c86752334ac9"
        },
        "valueCodeableConcept": {
          "coding": [
            {
              "system": "http://terminology.hl7.org/CodeSystem/v2-0136",
              "code": "Y",
              "display": "Yes"
            }
          ]
        }
      }
    },
    {
      "fullUrl": "urn:uuid:27beee4b-ce9d-42ba-badf-04d1829f4a1f",
      "resource": {
        "resourceType": "Observation",
        "id": "27beee4b-ce9d-42ba-badf-04d1829f4a1f",
        "meta": {
          "profile": [
            "http://mortalityreporting.github.io/nvdrs-ig/StructureDefinition/nvdrs-circumstances"
          ]
        },
        "status": "final",
        "category": [
          {
            "coding": [
              {
                "system": "http://mortalityreporting.github.io/nvdrs-ig/CodeSystem/nvdrs-custom-code-system",
                "code": "circumstances",
                "display": "Circumstances"
              }
            ],
            "text": "Data elements that fall under the circumstances category"
          }
        ],
        "code": {
          "coding": [
            {
              "system": "http://mortalityreporting.github.io/nvdrs-ig/CodeSystem/nvdrs-custom-code-system",
              "code": "drug-involvement",
              "display": "Drug Involvement"
            }
          ]
        },
        "subject": {
          "reference": "urn:uuid:de80f131-9c3d-442b-b2ff-c86752334ac9"
        },
        "valueCodeableConcept": {
          "coding": [
            {
              "system": "http://terminology.hl7.org/CodeSystem/v2-0136",
              "code": "Y",
              "display": "Yes"
            }
          ]
        }
      }
    },
    {
      "fullUrl": "urn:uuid:6b69122c-60ce-4cfd-badf-e834f9f99c17",
      "resource": {
        "resourceType": "Observation",
        "id": "6b69122c-60ce-4cfd-badf-e834f9f99c17",
        "meta": {
          "lastUpdated": "2024-07-24T11:19:01.117264-04:00",
          "profile": [
            "http://mortalityreporting.github.io/nvdrs-ig/StructureDefinition/nvdrs-death-abuse"
          ]
        },
        "status": "final",
        "category": [
          {
            "coding": [
              {
                "system": "http://mortalityreporting.github.io/nvdrs-ig/CodeSystem/nvdrs-custom-code-system",
                "code": "circumstances",
                "display": "Circumstances"
              }
            ],
            "text": "Data elements that fall under the circumstances category"
          }
        ],
        "code": {
          "coding": [
            {
              "system": "http://mortalityreporting.github.io/nvdrs-ig/CodeSystem/nvdrs-custom-code-system",
              "code": "death-abuse",
              "display": "Abuse or neglect led to death"
            }
          ]
        },
        "subject": {
          "reference": "urn:uuid:de80f131-9c3d-442b-b2ff-c86752334ac9"
        },
        "valueCodeableConcept": {
          "coding": [
            {
              "system": "http://terminology.hl7.org/CodeSystem/v2-0136",
              "code": "N",
              "display": "No"
            }
          ]
        }
      }
    },
    {
      "fullUrl": "urn:uuid:5c70713c-2c16-45f7-b3cb-ec33c9679737",
      "resource": {
        "resourceType": "Observation",
        "id": "5c70713c-2c16-45f7-b3cb-ec33c9679737",
        "meta": {
          "lastUpdated": "2024-07-24T11:19:01.117339-04:00",
          "profile": [
            "http://mortalityreporting.github.io/nvdrs-ig/StructureDefinition/nvdrs-gang-related"
          ]
        },
        "status": "final",
        "category": [
          {
            "coding": [
              {
                "system": "http://mortalityreporting.github.io/nvdrs-ig/CodeSystem/nvdrs-custom-code-system",
                "code": "circumstances",
                "display": "Circumstances"
              }
            ],
            "text": "Data elements that fall under the circumstances category"
          }
        ],
        "code": {
          "coding": [
            {
              "system": "http://mortalityreporting.github.io/nvdrs-ig/CodeSystem/nvdrs-custom-code-system",
              "code": "gang-related",
              "display": "Gang Related"
            }
          ],
          "text": "Death was gang related"
        },
        "subject": {
          "reference": "urn:uuid:de80f131-9c3d-442b-b2ff-c86752334ac9"
        },
        "valueCodeableConcept": {
          "coding": [
            {
              "system": "http://mortalityreporting.github.io/nvdrs-ig/CodeSystem/nvdrs-coding-manual-cs",
              "code": "GangRelated1",
              "display": "Yes, gang motivated"
            }
          ]
        }
      }
    },
    {
      "fullUrl": "urn:uuid:b29dcf76-362f-4ed1-b4ee-086adc41c5d4",
      "resource": {
        "resourceType": "Observation",
        "id": "b29dcf76-362f-4ed1-b4ee-086adc41c5d4",
        "meta": {
          "lastUpdated": "2024-07-24T11:19:01.117824-04:00",
          "profile": [
            "http://mortalityreporting.github.io/nvdrs-ig/StructureDefinition/nvdrs-drive-by-shooting"
          ]
        },
        "status": "final",
        "category": [
          {
            "coding": [
              {
                "system": "http://mortalityreporting.github.io/nvdrs-ig/CodeSystem/nvdrs-custom-code-system",
                "code": "circumstances",
                "display": "Circumstances"
              }
            ],
            "text": "Data elements that fall under the circumstances category"
          }
        ],
        "code": {
          "coding": [
            {
              "system": "http://mortalityreporting.github.io/nvdrs-ig/CodeSystem/nvdrs-custom-code-system",
              "code": "drive-by-shooting",
              "display": "Drive-by Shooting"
            }
          ]
        },
        "subject": {
          "reference": "urn:uuid:de80f131-9c3d-442b-b2ff-c86752334ac9"
        },
        "valueCodeableConcept": {
          "coding": [
            {
              "system": "http://terminology.hl7.org/CodeSystem/v2-0136",
              "code": "Y",
              "display": "Yes"
            }
          ]
        }
      }
    },
    {
      "fullUrl": "urn:uuid:1f374d1e-67a3-4a20-95fe-db01dbcdeab6",
      "resource": {
        "resourceType": "Observation",
        "id": "1f374d1e-67a3-4a20-95fe-db01dbcdeab6",
        "meta": {
          "profile": [
            "http://mortalityreporting.github.io/nvdrs-ig/StructureDefinition/nvdrs-playing-with-firearm"
          ]
        },
        "status": "final",
        "code": {
          "coding": [
            {
              "system": "http://mortalityreporting.github.io/nvdrs-ig/CodeSystem/nvdrs-custom-code-system",
              "code": "playing-with-firearm",
              "display": "Playing with Firearm"
            }
          ],
          "text": "Playing with Firearm"
        },
        "subject": {
          "reference": "urn:uuid:de80f131-9c3d-442b-b2ff-c86752334ac9"
        },
        "valueCodeableConcept": {
          "coding": [
            {
              "system": "http://terminology.hl7.org/CodeSystem/v2-0136",
              "code": "Y",
              "display": "Yes"
            }
          ]
        }
      }
    },
    {
      "fullUrl": "urn:uuid:14d34821-b09d-4630-99a6-1aaf30461a30",
      "resource": {
        "resourceType": "Observation",
        "id": "14d34821-b09d-4630-99a6-1aaf30461a30",
        "meta": {
          "profile": [
            "http://hl7.org/fhir/us/mdi/StructureDefinition/Observation-toxicology-lab-result"
          ]
        },
        "status": "final",
        "category": [
          {
            "coding": [
              {
                "system": "http://terminology.hl7.org/CodeSystem/observation-category",
                "code": "laboratory",
                "display": "Laboratory"
              }
            ]
          }
        ],
        "code": {
          "text": "Alcohol"
        },
        "subject": {
          "reference": "urn:uuid:de80f131-9c3d-442b-b2ff-c86752334ac9"
        },
        "valueString": "4"
      }
    },
    {
      "fullUrl": "urn:uuid:bdec2623-875f-4dd8-8ea1-2a57b4a5a057",
      "resource": {
        "resourceType": "Observation",
        "id": "bdec2623-875f-4dd8-8ea1-2a57b4a5a057",
        "meta": {
          "profile": [
            "http://hl7.org/fhir/us/mdi/StructureDefinition/Observation-toxicology-lab-result"
          ]
        },
        "status": "final",
        "category": [
          {
            "coding": [
              {
                "system": "http://terminology.hl7.org/CodeSystem/observation-category",
                "code": "laboratory",
                "display": "Laboratory"
              }
            ]
          }
        ],
        "code": {
          "text": "Amphetamine"
        },
        "subject": {
          "reference": "urn:uuid:de80f131-9c3d-442b-b2ff-c86752334ac9"
        },
        "valueString": "8 mg"
      }
    },
    {
      "fullUrl": "urn:uuid:4c8e7a8c-68d9-4e97-a0c2-5d2a811f1d67",
      "resource": {
        "resourceType": "Observation",
        "id": "4c8e7a8c-68d9-4e97-a0c2-5d2a811f1d67",
        "meta": {
          "profile": [
            "http://hl7.org/fhir/us/mdi/StructureDefinition/Observation-toxicology-lab-result"
          ]
        },
        "status": "final",
        "category": [
          {
            "coding": [
              {
                "system": "http://terminology.hl7.org/CodeSystem/observation-category",
                "code": "laboratory",
                "display": "Laboratory"
              }
            ]
          }
        ],
        "code": {
          "text": "Benzodiazepines"
        },
        "subject": {
          "reference": "urn:uuid:de80f131-9c3d-442b-b2ff-c86752334ac9"
        },
        "valueString": "10 mg"
      }
    },
    {
      "fullUrl": "urn:uuid:3f570668-40b7-48e4-b959-724231ac15ac",
      "resource": {
        "resourceType": "Observation",
        "id": "3f570668-40b7-48e4-b959-724231ac15ac",
        "meta": {
          "profile": [
            "http://hl7.org/fhir/us/mdi/StructureDefinition/Observation-toxicology-lab-result"
          ]
        },
        "status": "final",
        "category": [
          {
            "coding": [
              {
                "system": "http://terminology.hl7.org/CodeSystem/observation-category",
                "code": "laboratory",
                "display": "Laboratory"
              }
            ]
          }
        ],
        "code": {
          "text": "Cocaine"
        },
        "subject": {
          "reference": "urn:uuid:de80f131-9c3d-442b-b2ff-c86752334ac9"
        },
        "valueString": "9 mg"
      }
    },
    {
      "fullUrl": "urn:uuid:21861bd5-2c25-4009-98ef-ede863807442",
      "resource": {
        "resourceType": "Observation",
        "id": "21861bd5-2c25-4009-98ef-ede863807442",
        "meta": {
          "profile": [
            "http://hl7.org/fhir/us/mdi/StructureDefinition/Observation-toxicology-lab-result"
          ]
        },
        "status": "final",
        "category": [
          {
            "coding": [
              {
                "system": "http://terminology.hl7.org/CodeSystem/observation-category",
                "code": "laboratory",
                "display": "Laboratory"
              }
            ]
          }
        ],
        "code": {
          "text": "Opiate"
        },
        "subject": {
          "reference": "urn:uuid:de80f131-9c3d-442b-b2ff-c86752334ac9"
        },
        "valueString": "11 mg"
      }
    },
    {
      "fullUrl": "urn:uuid:60c2397b-172c-4240-a200-92a95c4721f7",
      "resource": {
        "resourceType": "Specimen",
        "id": "60c2397b-172c-4240-a200-92a95c4721f7",
        "meta": {
          "profile": [
            "http://hl7.org/fhir/us/mdi/StructureDefinition/Specimen-toxicology-lab"
          ]
        },
        "type": {
          "text": "Bile specimen (specimen)"
        },
        "subject": {
          "reference": "urn:uuid:de80f131-9c3d-442b-b2ff-c86752334ac9"
        }
      }
    },
    {
      "fullUrl": "urn:uuid:a83cc4c3-84ba-4674-a428-3a9697064fbd",
      "resource": {
        "resourceType": "Observation",
        "id": "a83cc4c3-84ba-4674-a428-3a9697064fbd",
        "meta": {
          "lastUpdated": "2024-07-24T11:19:01.11916-04:00",
          "profile": [
            "http://mortalityreporting.github.io/nvdrs-ig/StructureDefinition/nvdrs-homeless-at-death"
          ]
        },
        "status": "final",
        "category": [
          {
            "coding": [
              {
                "system": "http://mortalityreporting.github.io/nvdrs-ig/CodeSystem/nvdrs-custom-code-system",
                "code": "demographics",
                "display": "Demographics"
              }
            ],
            "text": "Data elements that fall under the demographics category"
          },
          {
            "coding": [
              {
                "system": "http://terminology.hl7.org/CodeSystem/observation-category",
                "code": "social-history"
              }
            ]
          }
        ],
        "code": {
          "coding": [
            {
              "system": "http://mortalityreporting.github.io/nvdrs-ig/CodeSystem/nvdrs-custom-code-system",
              "code": "homeless-at-death",
              "display": "Homeless (at time of death)"
            }
          ]
        },
        "subject": {
          "reference": "urn:uuid:de80f131-9c3d-442b-b2ff-c86752334ac9"
        },
        "valueCodeableConcept": {
          "coding": [
            {
              "system": "http://terminology.hl7.org/CodeSystem/v2-0136",
              "code": "Y",
              "display": "Yes"
            }
          ]
        }
      }
    },
    {
      "fullUrl": "urn:uuid:a48bd450-638f-4aff-9b6f-48ff939ebd6e",
      "resource": {
        "resourceType": "Observation",
        "id": "a48bd450-638f-4aff-9b6f-48ff939ebd6e",
        "meta": {
          "profile": [
            "http://hl7.org/fhir/us/vrdr/StructureDefinition/vrdr-decedent-age"
          ]
        },
        "status": "final",
        "code": {
          "coding": [
            {
              "system": "http://loinc.org",
              "code": "39016-1"
            }
          ]
        },
        "subject": {
          "reference": "urn:uuid:de80f131-9c3d-442b-b2ff-c86752334ac9"
        },
        "valueQuantity": {
          "value": 24,
          "unit": "a",
          "system": "http://unitsofmeasure.org",
          "code": "a"
        }
      }
    },
    {
      "fullUrl": "urn:uuid:cfd7f39e-e367-4d13-b430-a99afb910280",
      "resource": {
        "resourceType": "Observation",
        "id": "cfd7f39e-e367-4d13-b430-a99afb910280",
        "meta": {
          "profile": [
            "http://hl7.org/fhir/us/odh/StructureDefinition/odh-UsualWork"
          ]
        },
        "status": "final",
        "category": [
          {
            "coding": [
              {
                "system": "http://terminology.hl7.org/CodeSystem/observation-category",
                "code": "social-history"
              }
            ]
          }
        ],
        "code": {
          "coding": [
            {
              "system": "http://loinc.org",
              "code": "21843-8",
              "display": "History of Usual occupation"
            }
          ]
        },
        "subject": {
          "reference": "urn:uuid:de80f131-9c3d-442b-b2ff-c86752334ac9"
        },
        "valueCodeableConcept": {
          "text": "Occupation"
        },
        "component": [
          {
            "code": {
              "coding": [
                {
                  "system": "http://loinc.org",
                  "code": "21844-6",
                  "display": "History of Usual industry"
                }
              ]
            },
            "valueCodeableConcept": {
              "text": "Occupation"
            }
          }
        ]
      }
    },
    {
      "fullUrl": "urn:uuid:97c78c0c-3ad1-41a2-85bb-fd0d2c2d5dde",
      "resource": {
        "resourceType": "Observation",
        "id": "97c78c0c-3ad1-41a2-85bb-fd0d2c2d5dde",
        "meta": {
          "profile": [
            "http://hl7.org/fhir/us/core/StructureDefinition/us-core-body-height"
          ]
        },
        "status": "final",
        "category": [
          {
            "coding": [
              {
                "system": "http://terminology.hl7.org/CodeSystem/observation-category",
                "code": "vital-signs"
              }
            ]
          }
        ],
        "code": {
          "coding": [
            {
              "system": "http://loinc.org",
              "code": "8302-2"
            }
          ]
        },
        "subject": {
          "reference": "urn:uuid:de80f131-9c3d-442b-b2ff-c86752334ac9"
        },
        "effectiveDateTime": "2024-07-02",
        "valueQuantity": {
          "value": 259.8,
          "unit": "cm",
          "system": "http://unitsofmeasure.org",
          "code": "cm"
        }
      }
    },
    {
      "fullUrl": "urn:uuid:2590d6e3-54d4-472e-ab8f-17bb73613a24",
      "resource": {
        "resourceType": "Observation",
        "id": "2590d6e3-54d4-472e-ab8f-17bb73613a24",
        "meta": {
          "profile": [
            "http://hl7.org/fhir/us/core/StructureDefinition/us-core-body-weight"
          ]
        },
        "status": "final",
        "category": [
          {
            "coding": [
              {
                "system": "http://terminology.hl7.org/CodeSystem/observation-category",
                "code": "vital-signs"
              }
            ]
          }
        ],
        "code": {
          "coding": [
            {
              "system": "http://loinc.org",
              "code": "29463-7"
            }
          ]
        },
        "subject": {
          "reference": "urn:uuid:de80f131-9c3d-442b-b2ff-c86752334ac9"
        },
        "effectiveDateTime": "2024-07-02",
        "valueQuantity": {
          "value": 185,
          "unit": "lb_av",
          "system": "http://unitsofmeasure.org",
          "code": "[lb_av]"
        }
      }
    },
    {
      "fullUrl": "urn:uuid:fe0ecc2c-2593-4c1d-b886-12720d83f6e6",
      "resource": {
        "resourceType": "Observation",
        "id": "fe0ecc2c-2593-4c1d-b886-12720d83f6e6",
        "meta": {
          "profile": [
            "http://mortalityreporting.github.io/nvdrs-ig/StructureDefinition/nvdrs-weapon-type"
          ]
        },
        "status": "final",
        "code": {
          "coding": [
            {
              "system": "http://mortalityreporting.github.io/nvdrs-ig/CodeSystem/nvdrs-custom-code-system",
              "code": "weapon-type",
              "display": "Type of Weapon"
            }
          ]
        },
        "subject": {
          "reference": "urn:uuid:de80f131-9c3d-442b-b2ff-c86752334ac9"
        },
        "focus": [
          {
            "reference": "urn:uuid:efe4dc2d-050f-45b7-a9ea-0d58647ac29e"
          }
        ],
        "valueCodeableConcept": {
          "coding": [
            {
              "system": "http://mortalityreporting.github.io/nvdrs-ig/CodeSystem/nvdrs-coding-manual-cs",
              "code": "WeaponType1",
              "display": "Firearm"
            }
          ]
        }
      }
    },
    {
      "fullUrl": "urn:uuid:efe4dc2d-050f-45b7-a9ea-0d58647ac29e",
      "resource": {
        "resourceType": "Observation",
        "id": "efe4dc2d-050f-45b7-a9ea-0d58647ac29e",
        "meta": {
          "lastUpdated": "2024-07-24T11:19:01.120328-04:00",
          "profile": [
            "http://mortalityreporting.github.io/nvdrs-ig/StructureDefinition/nvdrs-firearm"
          ]
        },
        "extension": [
          {
            "url": "http://mortalityreporting.github.io/nvdrs-ig/StructureDefinition/nvdrs-firearm-stolen-extension",
            "valueCodeableConcept": {
              "coding": [
                {
                  "system": "http://terminology.hl7.org/CodeSystem/v2-0136",
                  "code": "Y",
                  "display": "Yes"
                }
              ]
            }
          },
          {
            "url": "http://mortalityreporting.github.io/nvdrs-ig/StructureDefinition/nvdrs-firearm-stored-loaded-extension",
            "valueCodeableConcept": {
              "coding": [
                {
                  "system": "http://terminology.hl7.org/CodeSystem/v2-0136",
                  "code": "Y",
                  "display": "Yes"
                }
              ]
            }
          },
          {
            "url": "http://mortalityreporting.github.io/nvdrs-ig/StructureDefinition/vdrs-firearm-serial-number",
            "valueIdentifier": {
              "system": "urn:vdrs:ncic:serialnumber",
              "value": "5555555f"
            }
          },
          {
            "url": "http://mortalityreporting.github.io/nvdrs-ig/StructureDefinition/nvdrs-firearm-owner-extension",
            "extension": [
              {
                "url": "code",
                "valueCodeableConcept": {
                  "coding": [
                    {
                      "system": "http://mortalityreporting.github.io/nvdrs-ig/CodeSystem/nvdrs-coding-manual-cs",
                      "code": "GunOwner7",
                      "display": "Stranger to shooter"
                    }
                  ]
                }
              },
              {
                "url": "narrative",
                "valueString": "Narrative here"
              },
              {
                "url": "reference",
                "valueReference": {
                  "reference": "urn:uuid:cb5facf8-649e-4fbf-b335-037756b5102c"
                }
              }
            ]
          }
        ],
        "status": "final",
        "category": [
          {
            "coding": [
              {
                "system": "http://mortalityreporting.github.io/nvdrs-ig/CodeSystem/nvdrs-custom-code-system",
                "code": "weapons",
                "display": "Weapon(s)"
              }
            ],
            "text": "Data elements that fall under the weapon(s) category"
          }
        ],
        "code": {
          "coding": [
            {
              "system": "http://mortalityreporting.github.io/nvdrs-ig/CodeSystem/nvdrs-custom-code-system",
              "code": "firearm",
              "display": "Details on Firearm"
            }
          ]
        },
        "subject": {
          "reference": "urn:uuid:de80f131-9c3d-442b-b2ff-c86752334ac9"
        },
        "component": [
          {
            "code": {
              "coding": [
                {
                  "system": "http://mortalityreporting.github.io/nvdrs-ig/CodeSystem/nvdrs-custom-code-system",
                  "code": "firearm-type",
                  "display": "Firearm - Firearm Type"
                }
              ]
            },
            "valueCodeableConcept": {
              "coding": [
                {
                  "system": "http://mortalityreporting.github.io/nvdrs-ig/CodeSystem/nvdrs-coding-manual-cs",
                  "code": "FirearmType16",
                  "display": "Shotgun, Unknown Type"
                }
              ]
            }
          },
          {
            "code": {
              "coding": [
                {
                  "system": "http://mortalityreporting.github.io/nvdrs-ig/CodeSystem/nvdrs-custom-code-system",
                  "code": "firearm-make",
                  "display": "Firearm - Gun Make or NCIC Code"
                }
              ]
            },
            "valueString": "64"
          },
          {
            "code": {
              "coding": [
                {
                  "system": "http://mortalityreporting.github.io/nvdrs-ig/CodeSystem/nvdrs-custom-code-system",
                  "code": "firearm-model",
                  "display": "Firearm - Gun Model"
                }
              ]
            },
            "valueString": "512"
          },
          {
            "code": {
              "coding": [
                {
                  "system": "http://mortalityreporting.github.io/nvdrs-ig/CodeSystem/nvdrs-custom-code-system",
                  "code": "firearm-caliber",
                  "display": "Firearm - Caliber"
                }
              ]
            },
            "valueString": "556"
          }
        ]
      }
    },
    {
      "fullUrl": "urn:uuid:cb5facf8-649e-4fbf-b335-037756b5102c",
      "resource": {
        "resourceType": "Person",
        "id": "cb5facf8-649e-4fbf-b335-037756b5102c",
        "name": [
          {
            "family": "Brown",
            "given": [
              "Tiffany"
            ]
          }
        ]
      }
    },
    {
      "fullUrl": "urn:uuid:dd6d2a82-9b14-41d5-ad82-65d010ecfe93",
      "resource": {
        "resourceType": "Observation",
        "id": "dd6d2a82-9b14-41d5-ad82-65d010ecfe93",
        "meta": {
          "profile": [
            "http://hl7.org/fhir/us/mdi/StructureDefinition/Observation-mdi-cause-of-death-part1"
          ]
        },
        "status": "final",
        "code": {
          "coding": [
            {
              "system": "http://loinc.org",
              "code": "69453-9",
              "display": "Cause of death [US Standard Certificate of Death]"
            }
          ]
        },
        "subject": {
          "reference": "urn:uuid:de80f131-9c3d-442b-b2ff-c86752334ac9"
        },
        "performer": [
          {
            "reference": "urn:uuid:ac069540-a993-11ed-afa1-0242ac120002"
          }
        ],
        "valueCodeableConcept": {
          "text": "Airway Occlusion - Chemical"
        },
        "component": [
          {
            "code": {
              "coding": [
                {
                  "system": "http://hl7.org/fhir/us/vrdr/CodeSystem/vrdr-component-cs",
                  "code": "lineNumber",
                  "display": "line number"
                }
              ]
            },
            "valueInteger": 1
          },
          {
            "code": {
              "coding": [
                {
                  "system": "http://loinc.org",
                  "code": "69440-6",
                  "display": "Disease onset to death interval"
                }
              ]
            },
            "valueString": "minutes"
          }
        ]
      }
    },
    {
      "fullUrl": "urn:uuid:a932df1f-5751-42ba-93ac-5051c182c1b6",
      "resource": {
        "resourceType": "Observation",
        "id": "a932df1f-5751-42ba-93ac-5051c182c1b6",
        "meta": {
          "profile": [
            "http://hl7.org/fhir/us/mdi/StructureDefinition/Observation-mdi-cause-of-death-part1"
          ]
        },
        "status": "final",
        "code": {
          "coding": [
            {
              "system": "http://loinc.org",
              "code": "69453-9",
              "display": "Cause of death [US Standard Certificate of Death]"
            }
          ]
        },
        "subject": {
          "reference": "urn:uuid:de80f131-9c3d-442b-b2ff-c86752334ac9"
        },
        "performer": [
          {
            "reference": "urn:uuid:ac069540-a993-11ed-afa1-0242ac120002"
          }
        ],
        "valueCodeableConcept": {
          "text": "Aspiration of Food - Chemical"
        },
        "component": [
          {
            "code": {
              "coding": [
                {
                  "system": "http://hl7.org/fhir/us/vrdr/CodeSystem/vrdr-component-cs",
                  "code": "lineNumber",
                  "display": "line number"
                }
              ]
            },
            "valueInteger": 2
          },
          {
            "code": {
              "coding": [
                {
                  "system": "http://loinc.org",
                  "code": "69440-6",
                  "display": "Disease onset to death interval"
                }
              ]
            },
            "valueString": "minutes"
          }
        ]
      }
    },
    {
      "fullUrl": "urn:uuid:abedd310-5c4c-46bd-a29a-ce93af5493ec",
      "resource": {
        "resourceType": "Observation",
        "id": "abedd310-5c4c-46bd-a29a-ce93af5493ec",
        "meta": {
          "profile": [
            "http://hl7.org/fhir/us/mdi/StructureDefinition/Observation-mdi-cause-of-death-part1"
          ]
        },
        "status": "final",
        "code": {
          "coding": [
            {
              "system": "http://loinc.org",
              "code": "69453-9",
              "display": "Cause of death [US Standard Certificate of Death]"
            }
          ]
        },
        "subject": {
          "reference": "urn:uuid:de80f131-9c3d-442b-b2ff-c86752334ac9"
        },
        "performer": [
          {
            "reference": "urn:uuid:ac069540-a993-11ed-afa1-0242ac120002"
          }
        ],
        "valueCodeableConcept": {
          "text": "Burns - Thermal"
        },
        "component": [
          {
            "code": {
              "coding": [
                {
                  "system": "http://hl7.org/fhir/us/vrdr/CodeSystem/vrdr-component-cs",
                  "code": "lineNumber",
                  "display": "line number"
                }
              ]
            },
            "valueInteger": 3
          },
          {
            "code": {
              "coding": [
                {
                  "system": "http://loinc.org",
                  "code": "69440-6",
                  "display": "Disease onset to death interval"
                }
              ]
            },
            "valueString": "minutes"
          }
        ]
      }
    },
    {
      "fullUrl": "urn:uuid:1a16945b-8148-42a6-b9ba-89042b9e32a0",
      "resource": {
        "resourceType": "Observation",
        "id": "1a16945b-8148-42a6-b9ba-89042b9e32a0",
        "meta": {
          "profile": [
            "http://hl7.org/fhir/us/mdi/StructureDefinition/Observation-mdi-cause-of-death-part1"
          ]
        },
        "status": "final",
        "code": {
          "coding": [
            {
              "system": "http://loinc.org",
              "code": "69453-9",
              "display": "Cause of death [US Standard Certificate of Death]"
            }
          ]
        },
        "subject": {
          "reference": "urn:uuid:de80f131-9c3d-442b-b2ff-c86752334ac9"
        },
        "performer": [
          {
            "reference": "urn:uuid:ac069540-a993-11ed-afa1-0242ac120002"
          }
        ],
        "valueCodeableConcept": {
          "text": "Cardiac - Ruptured Aortic Aneurysm"
        },
        "component": [
          {
            "code": {
              "coding": [
                {
                  "system": "http://hl7.org/fhir/us/vrdr/CodeSystem/vrdr-component-cs",
                  "code": "lineNumber",
                  "display": "line number"
                }
              ]
            },
            "valueInteger": 4
          },
          {
            "code": {
              "coding": [
                {
                  "system": "http://loinc.org",
                  "code": "69440-6",
                  "display": "Disease onset to death interval"
                }
              ]
            },
            "valueString": "minutes"
          }
        ]
      }
    },
    {
      "fullUrl": "urn:uuid:fe89036f-0aa4-4e89-ae72-ca36d8bfaec3",
      "resource": {
        "resourceType": "Observation",
        "id": "fe89036f-0aa4-4e89-ae72-ca36d8bfaec3",
        "meta": {
          "profile": [
            "http://hl7.org/fhir/us/vrdr/StructureDefinition/vrdr-cause-of-death-part2"
          ]
        },
        "status": "final",
        "code": {
          "coding": [
            {
              "system": "http://loinc.org",
              "code": "69441-4",
              "display": "Other significant causes or conditions of death"
            }
          ]
        },
        "subject": {
          "reference": "urn:uuid:de80f131-9c3d-442b-b2ff-c86752334ac9"
        },
        "performer": [
          {
            "reference": "urn:uuid:ac069540-a993-11ed-afa1-0242ac120002"
          }
        ],
        "valueCodeableConcept": {
          "text": "other cause"
        }
      }
    },
    {
      "fullUrl": "urn:uuid:6cc94f4e-a3fe-40d2-912e-69459b123de7",
      "resource": {
        "resourceType": "Procedure",
        "id": "6cc94f4e-a3fe-40d2-912e-69459b123de7",
        "meta": {
          "profile": [
            "http://hl7.org/fhir/us/vrdr/StructureDefinition/vrdr-death-certification"
          ]
        },
        "status": "completed",
        "category": {
          "coding": [
            {
              "system": "http://snomed.info/sct",
              "code": "103693007"
            }
          ]
        },
        "code": {
          "coding": [
            {
              "system": "http://snomed.info/sct",
              "code": "308646001"
            }
          ]
        },
        "subject": {
          "reference": "urn:uuid:de80f131-9c3d-442b-b2ff-c86752334ac9"
        },
        "performedDateTime": "2024-07-23",
        "performer": [
          {
            "function": {
              "coding": [
                {
                  "system": "http://snomed.info/sct",
                  "code": "455381000124109",
                  "display": "Death certification by medical examiner or coroner (procedure)"
                }
              ]
            },
            "actor": {
              "reference": "urn:uuid:ac069540-a993-11ed-afa1-0242ac120002"
            }
          }
        ]
      }
    },
    {
      "fullUrl": "urn:uuid:ae7efd08-6f5e-434e-9f74-4ba331a26524",
      "resource": {
        "resourceType": "Observation",
        "id": "ae7efd08-6f5e-434e-9f74-4ba331a26524",
        "meta": {
          "profile": [
            "http://mortalityreporting.github.io/nvdrs-ig/StructureDefinition/vdrs-number-of-victims"
          ]
        },
        "status": "final",
        "code": {
          "coding": [
            {
              "system": "http://mortalityreporting.github.io/nvdrs-ig/CodeSystem/nvdrs-custom-code-system",
              "code": "number-of-victims",
              "display": "Number of Victims (Non Fatal)"
            }
          ]
        },
        "subject": {
          "reference": "urn:uuid:de80f131-9c3d-442b-b2ff-c86752334ac9"
        },
        "valueInteger": 34
      }
    }
  ]
}