{
  "resourceType": "Bundle",
  "id": "6d9beb96-3edd-4344-8976-e8e46796c26c",
  "meta": {
    "profile": [
      "http://mortalityreporting.github.io/nvdrs-ig/StructureDefinition/nvdrs-document-bundle"
    ]
  },
  "identifier": {
    "system": "urn:gtri:heat-hisp:nvdrs-testing",
    "value": "urn:uuid:afb8bed8-42dd-4c0e-b46b-4f77da68e629"
  },
  "type": "document",
  "timestamp": "2024-08-12T22:35:59.940745-04:00",
  "entry": [
    {
      "fullUrl": "urn:uuid:f4d0cc95-fdbd-4f27-9b64-7969a2372432",
      "resource": {
        "resourceType": "Composition",
        "id": "f4d0cc95-fdbd-4f27-9b64-7969a2372432",
        "meta": {
          "profile": [
            "http://mortalityreporting.github.io/nvdrs-ig/StructureDefinition/nvdrs-composition"
          ]
        },
        "extension": [
          {
            "url": "http://mortalityreporting.github.io/nvdrs-ig/StructureDefinition/nvdrs-force-new-record-extension",
            "valueBoolean": true
          }
        ],
        "status": "final",
        "type": {
          "coding": [
            {
              "system": "http://mortalityreporting.github.io/nvdrs-ig/CodeSystem/nvdrs-custom-code-system",
              "code": "cme-report",
              "display": "C/ME Report"
            }
          ]
        },
        "subject": {
          "reference": "urn:uuid:d6349c2a-f58e-48cc-b4b2-b5cf6a792a55"
        },
        "date": "2024-08-12T22:35:59.893668-04:00",
        "author": [
          {
            "reference": "urn:uuid:ac069540-a993-11ed-afa1-0242ac120002"
          }
        ],
        "title": "NVDRS Document",
        "section": [
          {
            "title": "Injury and Death",
            "code": {
              "coding": [
                {
                  "system": "http://mortalityreporting.github.io/nvdrs-ig/CodeSystem/nvdrs-custom-code-system",
                  "code": "injury-and-death",
                  "display": "Injury and Death"
                }
              ]
            },
            "entry": [
              {
                "reference": "urn:uuid:f62f648d-c0ff-414e-8676-217c6b3fa487"
              },
              {
                "reference": "urn:uuid:91cc0e76-c68b-48ff-982c-426c3d8b7f9b"
              },
              {
                "reference": "urn:uuid:60ab0388-ede5-4c76-8496-375bf01c7fd7"
              },
              {
                "reference": "urn:uuid:64e1ccb4-2074-4f92-a866-d3862b584128"
              },
              {
                "reference": "urn:uuid:0a6b1d2d-3f58-472b-bfb0-e1e2a7a19e2f"
              },
              {
                "reference": "urn:uuid:02ec4cdb-f575-4c15-b3bb-3fdf850ebe38"
              }
            ]
          },
          {
            "title": "Circumstances",
            "code": {
              "coding": [
                {
                  "system": "http://mortalityreporting.github.io/nvdrs-ig/CodeSystem/nvdrs-custom-code-system",
                  "code": "circumstances",
                  "display": "Circumstances"
                }
              ]
            },
            "entry": [
              {
                "reference": "urn:uuid:865e076e-067a-4613-a727-582122158ed5"
              },
              {
                "reference": "urn:uuid:495788ae-c13b-4012-9a0b-ab56a4534955"
              },
              {
                "reference": "urn:uuid:19fad52a-c822-4d22-a1bc-aca283a67b23"
              },
              {
                "reference": "urn:uuid:2e9b8729-22c2-403d-87f5-4377af399d17"
              },
              {
                "reference": "urn:uuid:7c3f687a-a728-4223-90e9-5f9d8ee4c702"
              },
              {
                "reference": "urn:uuid:7d73fc14-4604-446b-924d-1918e0847f9a"
              },
              {
                "reference": "urn:uuid:d689e635-4d5b-4704-84e4-c82c464a4f2f"
              },
              {
                "reference": "urn:uuid:3093b76e-0ed6-46f1-ba02-523afbcd7654"
              },
              {
                "reference": "urn:uuid:a2d3c646-4334-4225-aa2e-d6d812fffac5"
              },
              {
                "reference": "urn:uuid:1b713179-913a-44af-9f84-5341935bee17"
              },
              {
                "reference": "urn:uuid:721142e3-b88b-41d8-8358-4c61de980b7f"
              },
              {
                "reference": "urn:uuid:fed23dc6-9604-43b0-9bab-08648a395479"
              },
              {
                "reference": "urn:uuid:ba1648a0-cd0b-4302-94e5-653b916db504"
              }
            ]
          },
          {
            "title": "Toxicology",
            "code": {
              "coding": [
                {
                  "system": "http://mortalityreporting.github.io/nvdrs-ig/CodeSystem/nvdrs-custom-code-system",
                  "code": "toxicology",
                  "display": "Toxicology"
                }
              ]
            },
            "entry": [
              {
                "reference": "urn:uuid:2fc115ec-fdb2-49d6-a8d9-888e1c1c41f8"
              },
              {
                "reference": "urn:uuid:e4b79532-962f-4df7-b8b9-d3d128b801ca"
              },
              {
                "reference": "urn:uuid:007eaa1e-d855-4686-9d1e-e9fda6a1e64c"
              },
              {
                "reference": "urn:uuid:9b46d00a-4b6d-4d2f-bffc-dcf55936bb85"
              },
              {
                "reference": "urn:uuid:2cdc7c2a-89f8-4acc-a7dc-3b1c8bf6d2c8"
              },
              {
                "reference": "urn:uuid:eba327ca-c683-4f4d-bd94-1fd5927771ce"
              }
            ]
          },
          {
            "title": "Demographics",
            "code": {
              "coding": [
                {
                  "system": "http://mortalityreporting.github.io/nvdrs-ig/CodeSystem/nvdrs-custom-code-system",
                  "code": "demographics",
                  "display": "Demographics"
                }
              ]
            },
            "entry": [
              {
                "reference": "urn:uuid:f5b854f1-76d6-45d4-891c-bf66eab14261"
              },
              {
                "reference": "urn:uuid:06394a5f-40b5-41da-9d76-df78915ec9b6"
              },
              {
                "reference": "urn:uuid:6837a5a6-8ed4-4459-ab09-2c1a628c5857"
              },
              {
                "reference": "urn:uuid:9d2af6f0-5472-4ebf-93b4-aca8335e252b"
              },
              {
                "reference": "urn:uuid:c43432d0-e07d-48fe-abaa-91e539f00ce1"
              },
              {
                "reference": "urn:uuid:62f07d7f-45b1-446b-b4da-3cec7095afa2"
              }
            ]
          },
          {
            "title": "Weapon(s)",
            "code": {
              "coding": [
                {
                  "system": "http://mortalityreporting.github.io/nvdrs-ig/CodeSystem/nvdrs-custom-code-system",
                  "code": "weapons",
                  "display": "Weapon(s)"
                }
              ]
            },
            "entry": [
              {
                "reference": "urn:uuid:d815be57-bbb5-4eeb-a87f-048d6d6b116f"
              }
            ]
          },
          {
            "title": "Cause and Manner of Death Section",
            "code": {
              "coding": [
                {
                  "system": "http://hl7.org/fhir/us/mdi/CodeSystem/CodeSystem-vr-codes",
                  "code": "cause-manner",
                  "display": "Cause and Manner of Death Section"
                }
              ]
            },
            "entry": [
              {
                "reference": "urn:uuid:dd4233f5-b6aa-494d-be01-b7cf2400f621"
              },
              {
                "reference": "urn:uuid:cc58e062-468a-4e12-9c7d-0f819cb8288d"
              },
              {
                "reference": "urn:uuid:f53478e7-87b6-4171-ac7d-465cf718ef5a"
              },
              {
                "reference": "urn:uuid:11a50dbf-9692-4147-b3ed-eec98effc745"
              },
              {
                "reference": "urn:uuid:1d2ef040-7280-49e7-813d-b55faa313e42"
              }
            ]
          },
          {
            "title": "Jurisdiction Section",
            "code": {
              "coding": [
                {
                  "system": "http://hl7.org/fhir/us/mdi/CodeSystem/CodeSystem-vr-codes",
                  "code": "jurisdiction",
                  "display": "Jurisdiction Section"
                }
              ]
            },
            "entry": [
              {
                "reference": "urn:uuid:2e955a4d-296f-40e1-a22e-cffe7df9c1a8"
              }
            ]
          },
          {
            "title": "Appendix",
            "code": {
              "coding": [
                {
                  "system": "urn:vdrs:document-sections",
                  "code": "appenddix",
                  "display": "Appendix"
                }
              ]
            },
            "entry": [
              {
                "reference": "urn:uuid:853eebc3-1921-4dc0-8d05-e512d0b08745"
              }
            ]
          }
        ]
      }
    },
    {
      "fullUrl": "urn:uuid:d6349c2a-f58e-48cc-b4b2-b5cf6a792a55",
      "resource": {
        "resourceType": "Patient",
        "id": "d6349c2a-f58e-48cc-b4b2-b5cf6a792a55",
        "meta": {
          "lastUpdated": "2024-08-12T22:35:59.865792-04:00",
          "profile": [
            "http://mortalityreporting.github.io/nvdrs-ig/StructureDefinition/nvdrs-decedent"
          ]
        },
        "extension": [
          {
            "extension": [
              {
                "url": "ombCategory",
                "valueCoding": {
                  "system": "http://terminology.hl7.org/CodeSystem/v3-NullFlavor",
                  "code": "UNK",
                  "display": "unknown"
                }
              },
              {
                "url": "detailed",
                "valueCoding": {
                  "system": "http://terminology.hl7.org/CodeSystem/v3-NullFlavor",
                  "code": "UNK",
                  "display": "unknown"
                }
              },
              {
                "url": "text",
                "valueString": "unknown"
              }
            ],
            "url": "http://hl7.org/fhir/us/core/StructureDefinition/us-core-race"
          },
          {
            "extension": [
              {
                "url": "ombCategory",
                "valueCoding": {
                  "system": "urn:oid:2.16.840.1.113883.6.238",
                  "code": "2135-2",
                  "display": "Hispanic or Latino"
                }
              },
              {
                "url": "detailed",
                "valueCoding": {
                  "system": "urn:oid:2.16.840.1.113883.6.238",
                  "code": "2149-3",
                  "display": "Mexican American"
                }
              },
              {
                "url": "text",
                "valueString": "Mexican American"
              }
            ],
            "url": "http://hl7.org/fhir/us/core/StructureDefinition/us-core-ethnicity"
          }
        ],
        "identifier": [
          {
            "use": "usual",
            "type": {
              "coding": [
                {
                  "system": "http://terminology.hl7.org/CodeSystem/v2-0203",
                  "code": "SB",
                  "display": "Social Beneficiary Identifier"
                }
              ]
            },
            "system": "http://hl7.org/fhir/sid/us-ssn",
            "value": "55555555"
          }
        ],
        "name": [
          {
            "use": "official",
            "family": "Cane",
            "given": [
              "Jhon",
              "Michael"
            ],
            "suffix": [
              "First"
            ]
          },
          {
            "use": "nickname",
            "family": "NameAKA"
          }
        ],
        "gender": "male",
        "birthDate": "2000-04-23",
        "address": [
          {
            "line": [
              "9127 Katy Freeway"
            ],
            "city": "Houston",
            "state": "TX",
            "postalCode": "77024",
            "country": "US"
          }
        ]
      }
    },
    {
      "fullUrl": "urn:uuid:ac069540-a993-11ed-afa1-0242ac120002",
      "resource": {
        "resourceType": "Practitioner",
        "id": "ac069540-a993-11ed-afa1-0242ac120002",
        "meta": {
          "lastUpdated": "2024-08-12T22:35:59.883749-04:00",
          "profile": [
            "http://hl7.org/fhir/us/vrdr/StructureDefinition/vrdr-certifier"
          ]
        },
        "extension": [
          {
            "url": "http://hl7.org/fhir/us/vrdr/StructureDefinition/practitioner-role",
            "valueCode": "Certifier"
          }
        ],
        "identifier": [
          {
            "system": "http://hl7.org/fhir/sid/us-npi",
            "value": "3333445555"
          }
        ],
        "name": [
          {
            "use": "official",
            "family": "Jones",
            "given": [
              "Sam"
            ],
            "prefix": [
              "Dr"
            ]
          }
        ],
        "telecom": [
          {
            "system": "phone",
            "value": "134-456-7890",
            "use": "work"
          }
        ],
        "address": [
          {
            "extension": [
              {
                "url": "http://hl7.org/fhir/us/vr-common-library/StructureDefinition/StreetName",
                "valueString": "Olympic Blvd"
              }
            ],
            "use": "work",
            "type": "physical",
            "line": [
              "567 Coda Blvd"
            ],
            "city": "Atlanta",
            "district": "Fulton County",
            "_district": {
              "extension": [
                {
                  "url": "http://hl7.org/fhir/us/vr-common-library/StructureDefinition/DistrictCode",
                  "valuePositiveInt": 4000
                }
              ]
            },
            "state": "GA",
            "postalCode": "30318",
            "country": "US"
          }
        ]
      }
    },
    {
      "fullUrl": "urn:uuid:f62f648d-c0ff-414e-8676-217c6b3fa487",
      "resource": {
        "resourceType": "Observation",
        "id": "f62f648d-c0ff-414e-8676-217c6b3fa487",
        "meta": {
          "lastUpdated": "2024-08-12T22:35:59.907871-04:00",
          "profile": [
            "http://mortalityreporting.github.io/nvdrs-ig/StructureDefinition/nvdrs-ems-at-scene"
          ]
        },
        "status": "final",
        "category": [
          {
            "coding": [
              {
                "system": "http://mortalityreporting.github.io/nvdrs-ig/CodeSystem/nvdrs-custom-code-system",
                "code": "injury-and-death",
                "display": "Injury and Death"
              }
            ],
            "text": "Data elements that fall under the injury and death category"
          }
        ],
        "code": {
          "coding": [
            {
              "system": "http://mortalityreporting.github.io/nvdrs-ig/CodeSystem/nvdrs-custom-code-system",
              "code": "ems-at-scene",
              "display": "EMS at Scene"
            }
          ]
        },
        "subject": {
          "reference": "urn:uuid:d6349c2a-f58e-48cc-b4b2-b5cf6a792a55"
        },
        "valueCodeableConcept": {
          "coding": [
            {
              "system": "http://terminology.hl7.org/CodeSystem/v2-0136",
              "code": "Y",
              "display": "Yes"
            }
          ]
        }
      }
    },
    {
      "fullUrl": "urn:uuid:91cc0e76-c68b-48ff-982c-426c3d8b7f9b",
      "resource": {
        "resourceType": "Observation",
        "id": "91cc0e76-c68b-48ff-982c-426c3d8b7f9b",
        "meta": {
          "lastUpdated": "2024-08-12T22:35:59.910921-04:00",
          "profile": [
            "http://mortalityreporting.github.io/nvdrs-ig/StructureDefinition/nvdrs-number-of-bullets"
          ]
        },
        "status": "final",
        "category": [
          {
            "coding": [
              {
                "system": "http://mortalityreporting.github.io/nvdrs-ig/CodeSystem/nvdrs-custom-code-system",
                "code": "injury-and-death",
                "display": "Injury and Death"
              }
            ],
            "text": "Data elements that fall under the injury and death category"
          }
        ],
        "code": {
          "coding": [
            {
              "system": "http://mortalityreporting.github.io/nvdrs-ig/CodeSystem/nvdrs-custom-code-system",
              "code": "number-of-bullets",
              "display": "Number of Bullets"
            }
          ]
        },
        "subject": {
          "reference": "urn:uuid:d6349c2a-f58e-48cc-b4b2-b5cf6a792a55"
        },
        "valueInteger": 3
      }
    },
    {
      "fullUrl": "urn:uuid:60ab0388-ede5-4c76-8496-375bf01c7fd7",
      "resource": {
        "resourceType": "Observation",
        "id": "60ab0388-ede5-4c76-8496-375bf01c7fd7",
        "meta": {
          "lastUpdated": "2024-08-12T22:35:59.911136-04:00",
          "profile": [
            "http://mortalityreporting.github.io/nvdrs-ig/StructureDefinition/nvdrs-victim-in-custody-when-injured"
          ]
        },
        "status": "final",
        "category": [
          {
            "coding": [
              {
                "system": "http://mortalityreporting.github.io/nvdrs-ig/CodeSystem/nvdrs-custom-code-system",
                "code": "injury-and-death",
                "display": "Injury and Death"
              }
            ],
            "text": "Data elements that fall under the injury and death category"
          }
        ],
        "code": {
          "coding": [
            {
              "system": "http://mortalityreporting.github.io/nvdrs-ig/CodeSystem/nvdrs-custom-code-system",
              "code": "victim-in-custody-when-injured",
              "display": "Victim in custody when injured"
            }
          ]
        },
        "subject": {
          "reference": "urn:uuid:d6349c2a-f58e-48cc-b4b2-b5cf6a792a55"
        },
        "valueCodeableConcept": {
          "coding": [
            {
              "system": "http://terminology.hl7.org/CodeSystem/v2-0136",
              "code": "Y",
              "display": "Yes"
            }
          ]
        }
      }
    },
    {
      "fullUrl": "urn:uuid:64e1ccb4-2074-4f92-a866-d3862b584128",
      "resource": {
        "resourceType": "Observation",
        "id": "64e1ccb4-2074-4f92-a866-d3862b584128",
        "meta": {
          "profile": [
            "http://hl7.org/fhir/us/vrdr/StructureDefinition/vrdr-injury-incident"
          ]
        },
        "status": "final",
        "code": {
          "coding": [
            {
              "system": "http://loinc.org",
              "code": "11374-6"
            }
          ]
        },
        "subject": {
          "reference": "urn:uuid:d6349c2a-f58e-48cc-b4b2-b5cf6a792a55"
        },
        "component": [
          {
            "code": {
              "coding": [
                {
                  "system": "http://loinc.org",
                  "code": "69444-8"
                }
              ]
            },
            "valueCodeableConcept": {
              "coding": [
                {
                  "system": "http://terminology.hl7.org/CodeSystem/v2-0136",
                  "code": "Y",
                  "display": "Yes"
                }
              ]
            }
          },
          {
            "code": {
              "coding": [
                {
                  "system": "http://loinc.org",
                  "code": "69450-5"
                }
              ]
            },
            "valueString": "company"
          },
          {
            "code": {
              "coding": [
                {
                  "system": "http://loinc.org",
                  "code": "69451-3"
                }
              ]
            },
            "valueCodeableConcept": {
              "coding": [
                {
                  "system": "http://terminology.hl7.org/CodeSystem/v3-NullFlavor",
                  "code": "OTH",
                  "display": "other"
                }
              ],
              "text": "Rear Right"
            }
          }
        ]
      }
    },
    {
      "fullUrl": "urn:uuid:0a6b1d2d-3f58-472b-bfb0-e1e2a7a19e2f",
      "resource": {
        "resourceType": "Location",
        "id": "0a6b1d2d-3f58-472b-bfb0-e1e2a7a19e2f",
        "meta": {
          "profile": [
            "http://hl7.org/fhir/us/vr-common-library/StructureDefinition/Location-vr"
          ]
        },
        "type": [
          {
            "coding": [
              {
                "system": "http://hl7.org/fhir/us/vrdr/CodeSystem/vrdr-location-type-cs",
                "code": "injury",
                "display": "Injury Location"
              }
            ]
          }
        ],
        "address": {
          "line": [
            "27421 Valley Center Road"
          ],
          "city": "Valley Center",
          "district": "San Diego",
          "state": "California",
          "postalCode": "92082",
          "country": "United States"
        }
      }
    },
    {
      "fullUrl": "urn:uuid:02ec4cdb-f575-4c15-b3bb-3fdf850ebe38",
      "resource": {
        "resourceType": "Observation",
        "id": "02ec4cdb-f575-4c15-b3bb-3fdf850ebe38",
        "meta": {
          "profile": [
            "http://hl7.org/fhir/us/vr-common-library/StructureDefinition/Observation-autopsy-performed-indicator-vr"
          ]
        },
        "status": "final",
        "code": {
          "coding": [
            {
              "system": "http://loinc.org",
              "code": "85699-7",
              "display": "Autopsy was performed"
            }
          ]
        },
        "subject": {
          "reference": "urn:uuid:d6349c2a-f58e-48cc-b4b2-b5cf6a792a55"
        },
        "valueCodeableConcept": {
          "coding": [
            {
              "system": "http://terminology.hl7.org/CodeSystem/v2-0136",
              "code": "N",
              "display": "No"
            }
          ]
        }
      }
    },
    {
      "fullUrl": "urn:uuid:865e076e-067a-4613-a727-582122158ed5",
      "resource": {
        "resourceType": "Observation",
        "id": "865e076e-067a-4613-a727-582122158ed5",
        "meta": {
          "profile": [
            "http://mortalityreporting.github.io/nvdrs-ig/StructureDefinition/nvdrs-circumstances",
            "http://mortalityreporting.github.io/nvdrs-ig/StructureDefinition/nvdrs-current-depressed-mood"
          ]
        },
        "status": "final",
        "category": [
          {
            "coding": [
              {
                "system": "http://mortalityreporting.github.io/nvdrs-ig/CodeSystem/nvdrs-custom-code-system",
                "code": "circumstances",
                "display": "Circumstances"
              }
            ],
            "text": "Data elements that fall under the circumstances category"
          }
        ],
        "code": {
          "coding": [
            {
              "system": "http://mortalityreporting.github.io/nvdrs-ig/CodeSystem/nvdrs-custom-code-system",
              "code": "current-depressed-mood",
              "display": "Current depressed mood"
            }
          ]
        },
        "subject": {
          "reference": "urn:uuid:d6349c2a-f58e-48cc-b4b2-b5cf6a792a55"
        },
        "valueCodeableConcept": {
          "coding": [
            {
              "system": "http://terminology.hl7.org/CodeSystem/v2-0136",
              "code": "Y",
              "display": "Yes"
            }
          ]
        }
      }
    },
    {
      "fullUrl": "urn:uuid:495788ae-c13b-4012-9a0b-ab56a4534955",
      "resource": {
        "resourceType": "Observation",
        "id": "495788ae-c13b-4012-9a0b-ab56a4534955",
        "meta": {
          "profile": [
            "http://mortalityreporting.github.io/nvdrs-ig/StructureDefinition/vdrs-history-of-mental-illness"
          ]
        },
        "status": "final",
        "code": {
          "coding": [
            {
              "system": "http://mortalityreporting.github.io/nvdrs-ig/CodeSystem/nvdrs-custom-code-system",
              "code": "history-of-mental-illness",
              "display": "History of Mental Illness"
            }
          ]
        },
        "subject": {
          "reference": "urn:uuid:d6349c2a-f58e-48cc-b4b2-b5cf6a792a55"
        },
        "valueCodeableConcept": {
          "coding": [
            {
              "system": "http://terminology.hl7.org/CodeSystem/v2-0136",
              "code": "Y",
              "display": "Yes"
            }
          ]
        }
      }
    },
    {
      "fullUrl": "urn:uuid:19fad52a-c822-4d22-a1bc-aca283a67b23",
      "resource": {
        "resourceType": "Observation",
        "id": "19fad52a-c822-4d22-a1bc-aca283a67b23",
        "meta": {
          "lastUpdated": "2024-08-12T22:35:59.916162-04:00",
          "profile": [
            "http://mortalityreporting.github.io/nvdrs-ig/StructureDefinition/nvdrs-history-of-self-harm"
          ]
        },
        "status": "final",
        "category": [
          {
            "coding": [
              {
                "system": "http://mortalityreporting.github.io/nvdrs-ig/CodeSystem/nvdrs-custom-code-system",
                "code": "circumstances",
                "display": "Circumstances"
              }
            ],
            "text": "Data elements that fall under the circumstances category"
          }
        ],
        "code": {
          "coding": [
            {
              "system": "http://mortalityreporting.github.io/nvdrs-ig/CodeSystem/nvdrs-custom-code-system",
              "code": "self-harm",
              "display": "Non-suicidal self-Injury/self-harm"
            }
          ],
          "text": "History of non-suicidal self-Injury/self-harm"
        },
        "subject": {
          "reference": "urn:uuid:d6349c2a-f58e-48cc-b4b2-b5cf6a792a55"
        },
        "valueCodeableConcept": {
          "coding": [
            {
              "system": "http://terminology.hl7.org/CodeSystem/v2-0136",
              "code": "Y",
              "display": "Yes"
            }
          ]
        }
      }
    },
    {
      "fullUrl": "urn:uuid:2e9b8729-22c2-403d-87f5-4377af399d17",
      "resource": {
        "resourceType": "Observation",
        "id": "2e9b8729-22c2-403d-87f5-4377af399d17",
        "meta": {
          "lastUpdated": "2024-08-12T22:35:59.916277-04:00",
          "profile": [
            "http://mortalityreporting.github.io/nvdrs-ig/StructureDefinition/nvdrs-random-violence"
          ]
        },
        "status": "final",
        "category": [
          {
            "coding": [
              {
                "system": "http://mortalityreporting.github.io/nvdrs-ig/CodeSystem/nvdrs-custom-code-system",
                "code": "circumstances",
                "display": "Circumstances"
              }
            ],
            "text": "Data elements that fall under the circumstances category"
          }
        ],
        "code": {
          "coding": [
            {
              "system": "http://mortalityreporting.github.io/nvdrs-ig/CodeSystem/nvdrs-custom-code-system",
              "code": "random-violence",
              "display": "Incident is Random Violence"
            }
          ]
        },
        "subject": {
          "reference": "urn:uuid:d6349c2a-f58e-48cc-b4b2-b5cf6a792a55"
        },
        "valueCodeableConcept": {
          "coding": [
            {
              "system": "http://terminology.hl7.org/CodeSystem/v2-0136",
              "code": "Y",
              "display": "Yes"
            }
          ]
        }
      }
    },
    {
      "fullUrl": "urn:uuid:7c3f687a-a728-4223-90e9-5f9d8ee4c702",
      "resource": {
        "resourceType": "Observation",
        "id": "7c3f687a-a728-4223-90e9-5f9d8ee4c702",
        "meta": {
          "lastUpdated": "2024-08-12T22:35:59.916371-04:00",
          "profile": [
            "http://mortalityreporting.github.io/nvdrs-ig/StructureDefinition/nvdrs-school-problem"
          ]
        },
        "status": "final",
        "category": [
          {
            "coding": [
              {
                "system": "http://mortalityreporting.github.io/nvdrs-ig/CodeSystem/nvdrs-custom-code-system",
                "code": "circumstances",
                "display": "Circumstances"
              }
            ],
            "text": "Data elements that fall under the circumstances category"
          }
        ],
        "code": {
          "coding": [
            {
              "system": "http://mortalityreporting.github.io/nvdrs-ig/CodeSystem/nvdrs-custom-code-system",
              "code": "school-problem",
              "display": "School Problem"
            }
          ]
        },
        "subject": {
          "reference": "urn:uuid:d6349c2a-f58e-48cc-b4b2-b5cf6a792a55"
        },
        "valueCodeableConcept": {
          "coding": [
            {
              "system": "http://terminology.hl7.org/CodeSystem/v2-0136",
              "code": "Y",
              "display": "Yes"
            }
          ]
        }
      }
    },
    {
      "fullUrl": "urn:uuid:7d73fc14-4604-446b-924d-1918e0847f9a",
      "resource": {
        "resourceType": "Observation",
        "id": "7d73fc14-4604-446b-924d-1918e0847f9a",
        "meta": {
          "lastUpdated": "2024-08-12T22:35:59.916467-04:00",
          "profile": [
            "http://mortalityreporting.github.io/nvdrs-ig/StructureDefinition/nvdrs-history-of-suicide-attempts"
          ]
        },
        "status": "final",
        "category": [
          {
            "coding": [
              {
                "system": "http://mortalityreporting.github.io/nvdrs-ig/CodeSystem/nvdrs-custom-code-system",
                "code": "circumstances",
                "display": "Circumstances"
              }
            ],
            "text": "Data elements that fall under the circumstances category"
          }
        ],
        "code": {
          "coding": [
            {
              "system": "http://mortalityreporting.github.io/nvdrs-ig/CodeSystem/nvdrs-custom-code-system",
              "code": "history-of-suicide-attempts",
              "display": "History of Suicide Attempts"
            }
          ]
        },
        "subject": {
          "reference": "urn:uuid:d6349c2a-f58e-48cc-b4b2-b5cf6a792a55"
        },
        "valueCodeableConcept": {
          "coding": [
            {
              "system": "http://terminology.hl7.org/CodeSystem/v2-0136",
              "code": "Y",
              "display": "Yes"
            }
          ]
        }
      }
    },
    {
      "fullUrl": "urn:uuid:d689e635-4d5b-4704-84e4-c82c464a4f2f",
      "resource": {
        "resourceType": "Observation",
        "id": "d689e635-4d5b-4704-84e4-c82c464a4f2f",
        "meta": {
          "profile": [
            "http://mortalityreporting.github.io/nvdrs-ig/StructureDefinition/vdrs-suicide-note"
          ]
        },
        "status": "final",
        "code": {
          "coding": [
            {
              "system": "http://mortalityreporting.github.io/nvdrs-ig/CodeSystem/nvdrs-custom-code-system",
              "code": "suicide-note",
              "display": "Suicide Note"
            }
          ]
        },
        "subject": {
          "reference": "urn:uuid:d6349c2a-f58e-48cc-b4b2-b5cf6a792a55"
        },
        "valueString": "Sorry.. I am ..."
      }
    },
    {
      "fullUrl": "urn:uuid:3093b76e-0ed6-46f1-ba02-523afbcd7654",
      "resource": {
        "resourceType": "Observation",
        "id": "3093b76e-0ed6-46f1-ba02-523afbcd7654",
        "meta": {
          "lastUpdated": "2024-08-12T22:35:59.916694-04:00",
          "profile": [
            "http://mortalityreporting.github.io/nvdrs-ig/StructureDefinition/nvdrs-history-alcohol-use"
          ]
        },
        "status": "final",
        "category": [
          {
            "coding": [
              {
                "system": "http://mortalityreporting.github.io/nvdrs-ig/CodeSystem/nvdrs-custom-code-system",
                "code": "circumstances",
                "display": "Circumstances"
              }
            ],
            "text": "Data elements that fall under the circumstances category"
          }
        ],
        "code": {
          "coding": [
            {
              "system": "http://loinc.org",
              "code": "11331-6",
              "display": "History of Alcohol Use"
            }
          ]
        },
        "subject": {
          "reference": "urn:uuid:d6349c2a-f58e-48cc-b4b2-b5cf6a792a55"
        },
        "valueCodeableConcept": {
          "coding": [
            {
              "system": "http://terminology.hl7.org/CodeSystem/v2-0136",
              "code": "Y",
              "display": "Yes"
            }
          ]
        }
      }
    },
    {
      "fullUrl": "urn:uuid:a2d3c646-4334-4225-aa2e-d6d812fffac5",
      "resource": {
        "resourceType": "Observation",
        "id": "a2d3c646-4334-4225-aa2e-d6d812fffac5",
        "meta": {
          "profile": [
            "http://mortalityreporting.github.io/nvdrs-ig/StructureDefinition/nvdrs-circumstances"
          ]
        },
        "status": "final",
        "category": [
          {
            "coding": [
              {
                "system": "http://mortalityreporting.github.io/nvdrs-ig/CodeSystem/nvdrs-custom-code-system",
                "code": "circumstances",
                "display": "Circumstances"
              }
            ],
            "text": "Data elements that fall under the circumstances category"
          }
        ],
        "code": {
          "coding": [
            {
              "system": "http://mortalityreporting.github.io/nvdrs-ig/CodeSystem/nvdrs-custom-code-system",
              "code": "drug-involvement",
              "display": "Drug Involvement"
            }
          ]
        },
        "subject": {
          "reference": "urn:uuid:d6349c2a-f58e-48cc-b4b2-b5cf6a792a55"
        },
        "valueCodeableConcept": {
          "coding": [
            {
              "system": "http://terminology.hl7.org/CodeSystem/v2-0136",
              "code": "Y",
              "display": "Yes"
            }
          ]
        }
      }
    },
    {
      "fullUrl": "urn:uuid:1b713179-913a-44af-9f84-5341935bee17",
      "resource": {
        "resourceType": "Observation",
        "id": "1b713179-913a-44af-9f84-5341935bee17",
        "meta": {
          "lastUpdated": "2024-08-12T22:35:59.916781-04:00",
          "profile": [
            "http://mortalityreporting.github.io/nvdrs-ig/StructureDefinition/nvdrs-death-abuse"
          ]
        },
        "status": "final",
        "category": [
          {
            "coding": [
              {
                "system": "http://mortalityreporting.github.io/nvdrs-ig/CodeSystem/nvdrs-custom-code-system",
                "code": "circumstances",
                "display": "Circumstances"
              }
            ],
            "text": "Data elements that fall under the circumstances category"
          }
        ],
        "code": {
          "coding": [
            {
              "system": "http://mortalityreporting.github.io/nvdrs-ig/CodeSystem/nvdrs-custom-code-system",
              "code": "death-abuse",
              "display": "Abuse or neglect led to death"
            }
          ]
        },
        "subject": {
          "reference": "urn:uuid:d6349c2a-f58e-48cc-b4b2-b5cf6a792a55"
        },
        "valueCodeableConcept": {
          "coding": [
            {
              "system": "http://terminology.hl7.org/CodeSystem/v2-0136",
              "code": "N",
              "display": "No"
            }
          ]
        }
      }
    },
    {
      "fullUrl": "urn:uuid:721142e3-b88b-41d8-8358-4c61de980b7f",
      "resource": {
        "resourceType": "Observation",
        "id": "721142e3-b88b-41d8-8358-4c61de980b7f",
        "meta": {
          "lastUpdated": "2024-08-12T22:35:59.916863-04:00",
          "profile": [
            "http://mortalityreporting.github.io/nvdrs-ig/StructureDefinition/nvdrs-gang-related"
          ]
        },
        "status": "final",
        "category": [
          {
            "coding": [
              {
                "system": "http://mortalityreporting.github.io/nvdrs-ig/CodeSystem/nvdrs-custom-code-system",
                "code": "circumstances",
                "display": "Circumstances"
              }
            ],
            "text": "Data elements that fall under the circumstances category"
          }
        ],
        "code": {
          "coding": [
            {
              "system": "http://mortalityreporting.github.io/nvdrs-ig/CodeSystem/nvdrs-custom-code-system",
              "code": "gang-related",
              "display": "Gang Related"
            }
          ],
          "text": "Death was gang related"
        },
        "subject": {
          "reference": "urn:uuid:d6349c2a-f58e-48cc-b4b2-b5cf6a792a55"
        },
        "valueCodeableConcept": {
          "coding": [
            {
              "system": "http://mortalityreporting.github.io/nvdrs-ig/CodeSystem/nvdrs-coding-manual-cs",
              "code": "GangRelated1",
              "display": "Yes, gang motivated"
            }
          ]
        }
      }
    },
    {
      "fullUrl": "urn:uuid:fed23dc6-9604-43b0-9bab-08648a395479",
      "resource": {
        "resourceType": "Observation",
        "id": "fed23dc6-9604-43b0-9bab-08648a395479",
        "meta": {
          "lastUpdated": "2024-08-12T22:35:59.917399-04:00",
          "profile": [
            "http://mortalityreporting.github.io/nvdrs-ig/StructureDefinition/nvdrs-drive-by-shooting"
          ]
        },
        "status": "final",
        "category": [
          {
            "coding": [
              {
                "system": "http://mortalityreporting.github.io/nvdrs-ig/CodeSystem/nvdrs-custom-code-system",
                "code": "circumstances",
                "display": "Circumstances"
              }
            ],
            "text": "Data elements that fall under the circumstances category"
          }
        ],
        "code": {
          "coding": [
            {
              "system": "http://mortalityreporting.github.io/nvdrs-ig/CodeSystem/nvdrs-custom-code-system",
              "code": "drive-by-shooting",
              "display": "Drive-by Shooting"
            }
          ]
        },
        "subject": {
          "reference": "urn:uuid:d6349c2a-f58e-48cc-b4b2-b5cf6a792a55"
        },
        "valueCodeableConcept": {
          "coding": [
            {
              "system": "http://terminology.hl7.org/CodeSystem/v2-0136",
              "code": "Y",
              "display": "Yes"
            }
          ]
        }
      }
    },
    {
      "fullUrl": "urn:uuid:ba1648a0-cd0b-4302-94e5-653b916db504",
      "resource": {
        "resourceType": "Observation",
        "id": "ba1648a0-cd0b-4302-94e5-653b916db504",
        "meta": {
          "profile": [
            "http://mortalityreporting.github.io/nvdrs-ig/StructureDefinition/nvdrs-playing-with-firearm"
          ]
        },
        "status": "final",
        "code": {
          "coding": [
            {
              "system": "http://mortalityreporting.github.io/nvdrs-ig/CodeSystem/nvdrs-custom-code-system",
              "code": "playing-with-firearm",
              "display": "Playing with Firearm"
            }
          ],
          "text": "Playing with Firearm"
        },
        "subject": {
          "reference": "urn:uuid:d6349c2a-f58e-48cc-b4b2-b5cf6a792a55"
        },
        "valueCodeableConcept": {
          "coding": [
            {
              "system": "http://terminology.hl7.org/CodeSystem/v2-0136",
              "code": "Y",
              "display": "Yes"
            }
          ]
        }
      }
    },
    {
      "fullUrl": "urn:uuid:2fc115ec-fdb2-49d6-a8d9-888e1c1c41f8",
      "resource": {
        "resourceType": "Observation",
        "id": "2fc115ec-fdb2-49d6-a8d9-888e1c1c41f8",
        "meta": {
          "profile": [
            "http://hl7.org/fhir/us/mdi/StructureDefinition/Observation-toxicology-lab-result"
          ]
        },
        "status": "final",
        "category": [
          {
            "coding": [
              {
                "system": "http://terminology.hl7.org/CodeSystem/observation-category",
                "code": "laboratory",
                "display": "Laboratory"
              }
            ]
          }
        ],
        "code": {
          "text": "Alcohol"
        },
        "subject": {
          "reference": "urn:uuid:d6349c2a-f58e-48cc-b4b2-b5cf6a792a55"
        },
        "valueString": "4"
      }
    },
    {
      "fullUrl": "urn:uuid:e4b79532-962f-4df7-b8b9-d3d128b801ca",
      "resource": {
        "resourceType": "Observation",
        "id": "e4b79532-962f-4df7-b8b9-d3d128b801ca",
        "meta": {
          "profile": [
            "http://hl7.org/fhir/us/mdi/StructureDefinition/Observation-toxicology-lab-result"
          ]
        },
        "status": "final",
        "category": [
          {
            "coding": [
              {
                "system": "http://terminology.hl7.org/CodeSystem/observation-category",
                "code": "laboratory",
                "display": "Laboratory"
              }
            ]
          }
        ],
        "code": {
          "text": "Amphetamine"
        },
        "subject": {
          "reference": "urn:uuid:d6349c2a-f58e-48cc-b4b2-b5cf6a792a55"
        },
        "valueString": "8 mg"
      }
    },
    {
      "fullUrl": "urn:uuid:007eaa1e-d855-4686-9d1e-e9fda6a1e64c",
      "resource": {
        "resourceType": "Observation",
        "id": "007eaa1e-d855-4686-9d1e-e9fda6a1e64c",
        "meta": {
          "profile": [
            "http://hl7.org/fhir/us/mdi/StructureDefinition/Observation-toxicology-lab-result"
          ]
        },
        "status": "final",
        "category": [
          {
            "coding": [
              {
                "system": "http://terminology.hl7.org/CodeSystem/observation-category",
                "code": "laboratory",
                "display": "Laboratory"
              }
            ]
          }
        ],
        "code": {
          "text": "Benzodiazepines"
        },
        "subject": {
          "reference": "urn:uuid:d6349c2a-f58e-48cc-b4b2-b5cf6a792a55"
        },
        "valueString": "10 mg"
      }
    },
    {
      "fullUrl": "urn:uuid:9b46d00a-4b6d-4d2f-bffc-dcf55936bb85",
      "resource": {
        "resourceType": "Observation",
        "id": "9b46d00a-4b6d-4d2f-bffc-dcf55936bb85",
        "meta": {
          "profile": [
            "http://hl7.org/fhir/us/mdi/StructureDefinition/Observation-toxicology-lab-result"
          ]
        },
        "status": "final",
        "category": [
          {
            "coding": [
              {
                "system": "http://terminology.hl7.org/CodeSystem/observation-category",
                "code": "laboratory",
                "display": "Laboratory"
              }
            ]
          }
        ],
        "code": {
          "text": "Cocaine"
        },
        "subject": {
          "reference": "urn:uuid:d6349c2a-f58e-48cc-b4b2-b5cf6a792a55"
        },
        "valueString": "9 mg"
      }
    },
    {
      "fullUrl": "urn:uuid:2cdc7c2a-89f8-4acc-a7dc-3b1c8bf6d2c8",
      "resource": {
        "resourceType": "Observation",
        "id": "2cdc7c2a-89f8-4acc-a7dc-3b1c8bf6d2c8",
        "meta": {
          "profile": [
            "http://hl7.org/fhir/us/mdi/StructureDefinition/Observation-toxicology-lab-result"
          ]
        },
        "status": "final",
        "category": [
          {
            "coding": [
              {
                "system": "http://terminology.hl7.org/CodeSystem/observation-category",
                "code": "laboratory",
                "display": "Laboratory"
              }
            ]
          }
        ],
        "code": {
          "text": "Opiate"
        },
        "subject": {
          "reference": "urn:uuid:d6349c2a-f58e-48cc-b4b2-b5cf6a792a55"
        },
        "valueString": "11 mg"
      }
    },
    {
      "fullUrl": "urn:uuid:eba327ca-c683-4f4d-bd94-1fd5927771ce",
      "resource": {
        "resourceType": "Specimen",
        "id": "eba327ca-c683-4f4d-bd94-1fd5927771ce",
        "meta": {
          "profile": [
            "http://hl7.org/fhir/us/mdi/StructureDefinition/Specimen-toxicology-lab"
          ]
        },
        "type": {
          "text": "Bile specimen (specimen)"
        },
        "subject": {
          "reference": "urn:uuid:d6349c2a-f58e-48cc-b4b2-b5cf6a792a55"
        }
      }
    },
    {
      "fullUrl": "urn:uuid:f5b854f1-76d6-45d4-891c-bf66eab14261",
      "resource": {
        "resourceType": "Observation",
        "id": "f5b854f1-76d6-45d4-891c-bf66eab14261",
        "meta": {
          "lastUpdated": "2024-08-12T22:35:59.918882-04:00",
          "profile": [
            "http://mortalityreporting.github.io/nvdrs-ig/StructureDefinition/nvdrs-homeless-at-death"
          ]
        },
        "status": "final",
        "category": [
          {
            "coding": [
              {
                "system": "http://mortalityreporting.github.io/nvdrs-ig/CodeSystem/nvdrs-custom-code-system",
                "code": "demographics",
                "display": "Demographics"
              }
            ],
            "text": "Data elements that fall under the demographics category"
          },
          {
            "coding": [
              {
                "system": "http://terminology.hl7.org/CodeSystem/observation-category",
                "code": "social-history"
              }
            ]
          }
        ],
        "code": {
          "coding": [
            {
              "system": "http://mortalityreporting.github.io/nvdrs-ig/CodeSystem/nvdrs-custom-code-system",
              "code": "homeless-at-death",
              "display": "Homeless (at time of death)"
            }
          ]
        },
        "subject": {
          "reference": "urn:uuid:d6349c2a-f58e-48cc-b4b2-b5cf6a792a55"
        },
        "valueCodeableConcept": {
          "coding": [
            {
              "system": "http://terminology.hl7.org/CodeSystem/v2-0136",
              "code": "Y",
              "display": "Yes"
            }
          ]
        }
      }
    },
    {
      "fullUrl": "urn:uuid:06394a5f-40b5-41da-9d76-df78915ec9b6",
      "resource": {
        "resourceType": "Observation",
        "id": "06394a5f-40b5-41da-9d76-df78915ec9b6",
        "meta": {
          "profile": [
            "http://hl7.org/fhir/us/vrdr/StructureDefinition/vrdr-decedent-age"
          ]
        },
        "status": "final",
        "code": {
          "coding": [
            {
              "system": "http://loinc.org",
              "code": "39016-1"
            }
          ]
        },
        "subject": {
          "reference": "urn:uuid:d6349c2a-f58e-48cc-b4b2-b5cf6a792a55"
        },
        "valueQuantity": {
          "value": 24,
          "unit": "a",
          "system": "http://unitsofmeasure.org",
          "code": "a"
        }
      }
    },
    {
      "fullUrl": "urn:uuid:6837a5a6-8ed4-4459-ab09-2c1a628c5857",
      "resource": {
        "resourceType": "Observation",
        "id": "6837a5a6-8ed4-4459-ab09-2c1a628c5857",
        "meta": {
          "profile": [
            "http://hl7.org/fhir/us/odh/StructureDefinition/odh-UsualWork"
          ]
        },
        "status": "final",
        "category": [
          {
            "coding": [
              {
                "system": "http://terminology.hl7.org/CodeSystem/observation-category",
                "code": "social-history"
              }
            ]
          }
        ],
        "code": {
          "coding": [
            {
              "system": "http://loinc.org",
              "code": "21843-8"
            }
          ]
        },
        "subject": {
          "reference": "urn:uuid:d6349c2a-f58e-48cc-b4b2-b5cf6a792a55"
        },
        "valueCodeableConcept": {
          "text": "Occupation"
        },
        "component": [
          {
            "code": {
              "coding": [
                {
                  "system": "http://loinc.org",
                  "code": "21844-6",
                  "display": "History of Usual industry"
                }
              ]
            },
            "valueCodeableConcept": {
              "text": "Occupation"
            }
          }
        ]
      }
    },
    {
      "fullUrl": "urn:uuid:9d2af6f0-5472-4ebf-93b4-aca8335e252b",
      "resource": {
        "resourceType": "Observation",
        "id": "9d2af6f0-5472-4ebf-93b4-aca8335e252b",
        "meta": {
          "profile": [
            "http://hl7.org/fhir/us/core/StructureDefinition/us-core-body-height"
          ]
        },
        "status": "final",
        "category": [
          {
            "coding": [
              {
                "system": "http://terminology.hl7.org/CodeSystem/observation-category",
                "code": "vital-signs"
              }
            ]
          }
        ],
        "code": {
          "coding": [
            {
              "system": "http://loinc.org",
              "code": "8302-2"
            }
          ]
        },
        "subject": {
          "reference": "urn:uuid:d6349c2a-f58e-48cc-b4b2-b5cf6a792a55"
        },
        "effectiveDateTime": "2024-07-02",
        "valueQuantity": {
          "value": 259.8,
          "unit": "cm",
          "system": "http://unitsofmeasure.org",
          "code": "cm"
        }
      }
    },
    {
      "fullUrl": "urn:uuid:c43432d0-e07d-48fe-abaa-91e539f00ce1",
      "resource": {
        "resourceType": "Observation",
        "id": "c43432d0-e07d-48fe-abaa-91e539f00ce1",
        "meta": {
          "profile": [
            "http://hl7.org/fhir/us/core/StructureDefinition/us-core-body-weight"
          ]
        },
        "status": "final",
        "category": [
          {
            "coding": [
              {
                "system": "http://terminology.hl7.org/CodeSystem/observation-category",
                "code": "vital-signs"
              }
            ]
          }
        ],
        "code": {
          "coding": [
            {
              "system": "http://loinc.org",
              "code": "29463-7"
            }
          ]
        },
        "subject": {
          "reference": "urn:uuid:d6349c2a-f58e-48cc-b4b2-b5cf6a792a55"
        },
        "effectiveDateTime": "2024-07-02",
        "valueQuantity": {
          "value": 185,
          "unit": "lb_av",
          "system": "http://unitsofmeasure.org",
          "code": "[lb_av]"
        }
      }
    },
    {
      "fullUrl": "urn:uuid:62f07d7f-45b1-446b-b4da-3cec7095afa2",
      "resource": {
        "resourceType": "Observation",
        "id": "62f07d7f-45b1-446b-b4da-3cec7095afa2",
        "meta": {
          "profile": [
            "http://hl7.org/fhir/us/core/StructureDefinition/us-core-observation-sexual-orientation"
          ]
        },
        "status": "final",
        "code": {
          "coding": [
            {
              "system": "http://loinc.org",
              "code": "76690-7"
            }
          ]
        },
        "subject": {
          "reference": "urn:uuid:d6349c2a-f58e-48cc-b4b2-b5cf6a792a55"
        },
        "valueCodeableConcept": {
          "coding": [
            {
              "system": "http://snomed.info/sct",
              "code": "42035005",
              "display": "Bisexual (finding)"
            }
          ]
        }
      }
    },
    {
      "fullUrl": "urn:uuid:d815be57-bbb5-4eeb-a87f-048d6d6b116f",
      "resource": {
        "resourceType": "Observation",
        "id": "d815be57-bbb5-4eeb-a87f-048d6d6b116f",
        "meta": {
          "profile": [
            "http://mortalityreporting.github.io/nvdrs-ig/StructureDefinition/nvdrs-weapon-type"
          ]
        },
        "status": "final",
        "code": {
          "coding": [
            {
              "system": "http://mortalityreporting.github.io/nvdrs-ig/CodeSystem/nvdrs-custom-code-system",
              "code": "weapon-type",
              "display": "Type of Weapon"
            }
          ]
        },
        "subject": {
          "reference": "urn:uuid:d6349c2a-f58e-48cc-b4b2-b5cf6a792a55"
        },
        "focus": [
          {
            "reference": "urn:uuid:2051a6f2-1a14-4e38-866a-cfb4d5c6d0da"
          }
        ],
        "valueCodeableConcept": {
          "coding": [
            {
              "system": "http://mortalityreporting.github.io/nvdrs-ig/CodeSystem/nvdrs-coding-manual-cs",
              "code": "WeaponType1",
              "display": "Firearm"
            }
          ]
        }
      }
    },
    {
      "fullUrl": "urn:uuid:2051a6f2-1a14-4e38-866a-cfb4d5c6d0da",
      "resource": {
        "resourceType": "Observation",
        "id": "2051a6f2-1a14-4e38-866a-cfb4d5c6d0da",
        "meta": {
          "lastUpdated": "2024-08-12T22:35:59.920423-04:00",
          "profile": [
            "http://mortalityreporting.github.io/nvdrs-ig/StructureDefinition/nvdrs-firearm"
          ]
        },
        "extension": [
          {
            "url": "http://mortalityreporting.github.io/nvdrs-ig/StructureDefinition/nvdrs-firearm-stolen-extension",
            "valueCodeableConcept": {
              "coding": [
                {
                  "system": "http://terminology.hl7.org/CodeSystem/v2-0136",
                  "code": "Y",
                  "display": "Yes"
                }
              ]
            }
          },
          {
            "url": "http://mortalityreporting.github.io/nvdrs-ig/StructureDefinition/nvdrs-firearm-stored-loaded-extension",
            "valueCodeableConcept": {
              "coding": [
                {
                  "system": "http://terminology.hl7.org/CodeSystem/v2-0136",
                  "code": "Y",
                  "display": "Yes"
                }
              ]
            }
          },
          {
            "url": "http://mortalityreporting.github.io/nvdrs-ig/StructureDefinition/vdrs-firearm-serial-number",
            "valueIdentifier": {
              "system": "urn:vdrs:ncic:serialnumber",
              "value": "5555555f"
            }
          },
          {
            "extension": [
              {
                "url": "code",
                "valueCodeableConcept": {
                  "coding": [
                    {
                      "system": "http://mortalityreporting.github.io/nvdrs-ig/CodeSystem/nvdrs-coding-manual-cs",
                      "code": "GunOwner7",
                      "display": "Stranger to shooter"
                    }
                  ]
                }
              },
              {
                "url": "narrative",
                "valueString": "Narrative here"
              },
              {
                "url": "reference",
                "valueReference": {
                  "reference": "urn:uuid:5c06a086-c1dd-4406-90e8-99a76b302adc"
                }
              }
            ],
            "url": "http://mortalityreporting.github.io/nvdrs-ig/StructureDefinition/nvdrs-firearm-owner-extension"
          }
        ],
        "status": "final",
        "category": [
          {
            "coding": [
              {
                "system": "http://mortalityreporting.github.io/nvdrs-ig/CodeSystem/nvdrs-custom-code-system",
                "code": "weapons",
                "display": "Weapon(s)"
              }
            ],
            "text": "Data elements that fall under the weapon(s) category"
          }
        ],
        "code": {
          "coding": [
            {
              "system": "http://mortalityreporting.github.io/nvdrs-ig/CodeSystem/nvdrs-custom-code-system",
              "code": "firearm",
              "display": "Details on Firearm"
            }
          ]
        },
        "subject": {
          "reference": "urn:uuid:d6349c2a-f58e-48cc-b4b2-b5cf6a792a55"
        },
        "component": [
          {
            "code": {
              "coding": [
                {
                  "system": "http://mortalityreporting.github.io/nvdrs-ig/CodeSystem/nvdrs-custom-code-system",
                  "code": "firearm-type",
                  "display": "Firearm - Firearm Type"
                }
              ]
            },
            "valueCodeableConcept": {
              "coding": [
                {
                  "system": "http://mortalityreporting.github.io/nvdrs-ig/CodeSystem/nvdrs-coding-manual-cs",
                  "code": "FirearmType16",
                  "display": "Shotgun, Unknown Type"
                }
              ]
            }
          },
          {
            "code": {
              "coding": [
                {
                  "system": "http://mortalityreporting.github.io/nvdrs-ig/CodeSystem/nvdrs-custom-code-system",
                  "code": "firearm-make",
                  "display": "Firearm - Gun Make or NCIC Code"
                }
              ]
            },
            "valueString": "64"
          },
          {
            "code": {
              "coding": [
                {
                  "system": "http://mortalityreporting.github.io/nvdrs-ig/CodeSystem/nvdrs-custom-code-system",
                  "code": "firearm-model",
                  "display": "Firearm - Gun Model"
                }
              ]
            },
            "valueString": "512"
          },
          {
            "code": {
              "coding": [
                {
                  "system": "http://mortalityreporting.github.io/nvdrs-ig/CodeSystem/nvdrs-custom-code-system",
                  "code": "firearm-caliber",
                  "display": "Firearm - Caliber"
                }
              ]
            },
            "valueString": "556"
          }
        ]
      }
    },
    {
      "fullUrl": "urn:uuid:5c06a086-c1dd-4406-90e8-99a76b302adc",
      "resource": {
        "resourceType": "Person",
        "id": "5c06a086-c1dd-4406-90e8-99a76b302adc",
        "name": [
          {
            "family": "Brown",
            "given": [
              "Tiffany"
            ]
          }
        ]
      }
    },
    {
      "fullUrl": "urn:uuid:dd4233f5-b6aa-494d-be01-b7cf2400f621",
      "resource": {
        "resourceType": "Observation",
        "id": "dd4233f5-b6aa-494d-be01-b7cf2400f621",
        "meta": {
          "profile": [
            "http://hl7.org/fhir/us/mdi/StructureDefinition/Observation-mdi-cause-of-death-part1"
          ]
        },
        "status": "final",
        "code": {
          "coding": [
            {
              "system": "http://loinc.org",
              "code": "69453-9",
              "display": "Cause of death [US Standard Certificate of Death]"
            }
          ]
        },
        "subject": {
          "reference": "urn:uuid:d6349c2a-f58e-48cc-b4b2-b5cf6a792a55"
        },
        "performer": [
          {
            "reference": "urn:uuid:ac069540-a993-11ed-afa1-0242ac120002"
          }
        ],
        "valueCodeableConcept": {
          "text": "Airway Occlusion - Chemical"
        },
        "component": [
          {
            "code": {
              "coding": [
                {
                  "system": "http://hl7.org/fhir/us/vrdr/CodeSystem/vrdr-component-cs",
                  "code": "lineNumber",
                  "display": "line number"
                }
              ]
            },
            "valueInteger": 1
          },
          {
            "code": {
              "coding": [
                {
                  "system": "http://loinc.org",
                  "code": "69440-6",
                  "display": "Disease onset to death interval"
                }
              ]
            },
            "valueString": "minutes"
          }
        ]
      }
    },
    {
      "fullUrl": "urn:uuid:cc58e062-468a-4e12-9c7d-0f819cb8288d",
      "resource": {
        "resourceType": "Observation",
        "id": "cc58e062-468a-4e12-9c7d-0f819cb8288d",
        "meta": {
          "profile": [
            "http://hl7.org/fhir/us/mdi/StructureDefinition/Observation-mdi-cause-of-death-part1"
          ]
        },
        "status": "final",
        "code": {
          "coding": [
            {
              "system": "http://loinc.org",
              "code": "69453-9",
              "display": "Cause of death [US Standard Certificate of Death]"
            }
          ]
        },
        "subject": {
          "reference": "urn:uuid:d6349c2a-f58e-48cc-b4b2-b5cf6a792a55"
        },
        "performer": [
          {
            "reference": "urn:uuid:ac069540-a993-11ed-afa1-0242ac120002"
          }
        ],
        "valueCodeableConcept": {
          "text": "Aspiration of Food - Chemical"
        },
        "component": [
          {
            "code": {
              "coding": [
                {
                  "system": "http://hl7.org/fhir/us/vrdr/CodeSystem/vrdr-component-cs",
                  "code": "lineNumber",
                  "display": "line number"
                }
              ]
            },
            "valueInteger": 2
          },
          {
            "code": {
              "coding": [
                {
                  "system": "http://loinc.org",
                  "code": "69440-6",
                  "display": "Disease onset to death interval"
                }
              ]
            },
            "valueString": "minutes"
          }
        ]
      }
    },
    {
      "fullUrl": "urn:uuid:f53478e7-87b6-4171-ac7d-465cf718ef5a",
      "resource": {
        "resourceType": "Observation",
        "id": "f53478e7-87b6-4171-ac7d-465cf718ef5a",
        "meta": {
          "profile": [
            "http://hl7.org/fhir/us/mdi/StructureDefinition/Observation-mdi-cause-of-death-part1"
          ]
        },
        "status": "final",
        "code": {
          "coding": [
            {
              "system": "http://loinc.org",
              "code": "69453-9",
              "display": "Cause of death [US Standard Certificate of Death]"
            }
          ]
        },
        "subject": {
          "reference": "urn:uuid:d6349c2a-f58e-48cc-b4b2-b5cf6a792a55"
        },
        "performer": [
          {
            "reference": "urn:uuid:ac069540-a993-11ed-afa1-0242ac120002"
          }
        ],
        "valueCodeableConcept": {
          "text": "Burns - Thermal"
        },
        "component": [
          {
            "code": {
              "coding": [
                {
                  "system": "http://hl7.org/fhir/us/vrdr/CodeSystem/vrdr-component-cs",
                  "code": "lineNumber",
                  "display": "line number"
                }
              ]
            },
            "valueInteger": 3
          },
          {
            "code": {
              "coding": [
                {
                  "system": "http://loinc.org",
                  "code": "69440-6",
                  "display": "Disease onset to death interval"
                }
              ]
            },
            "valueString": "minutes"
          }
        ]
      }
    },
    {
      "fullUrl": "urn:uuid:11a50dbf-9692-4147-b3ed-eec98effc745",
      "resource": {
        "resourceType": "Observation",
        "id": "11a50dbf-9692-4147-b3ed-eec98effc745",
        "meta": {
          "profile": [
            "http://hl7.org/fhir/us/mdi/StructureDefinition/Observation-mdi-cause-of-death-part1"
          ]
        },
        "status": "final",
        "code": {
          "coding": [
            {
              "system": "http://loinc.org",
              "code": "69453-9",
              "display": "Cause of death [US Standard Certificate of Death]"
            }
          ]
        },
        "subject": {
          "reference": "urn:uuid:d6349c2a-f58e-48cc-b4b2-b5cf6a792a55"
        },
        "performer": [
          {
            "reference": "urn:uuid:ac069540-a993-11ed-afa1-0242ac120002"
          }
        ],
        "valueCodeableConcept": {
          "text": "Cardiac - Ruptured Aortic Aneurysm"
        },
        "component": [
          {
            "code": {
              "coding": [
                {
                  "system": "http://hl7.org/fhir/us/vrdr/CodeSystem/vrdr-component-cs",
                  "code": "lineNumber",
                  "display": "line number"
                }
              ]
            },
            "valueInteger": 4
          },
          {
            "code": {
              "coding": [
                {
                  "system": "http://loinc.org",
                  "code": "69440-6",
                  "display": "Disease onset to death interval"
                }
              ]
            },
            "valueString": "minutes"
          }
        ]
      }
    },
    {
      "fullUrl": "urn:uuid:1d2ef040-7280-49e7-813d-b55faa313e42",
      "resource": {
        "resourceType": "Observation",
        "id": "1d2ef040-7280-49e7-813d-b55faa313e42",
        "meta": {
          "profile": [
            "http://hl7.org/fhir/us/vrdr/StructureDefinition/vrdr-cause-of-death-part2"
          ]
        },
        "status": "final",
        "code": {
          "coding": [
            {
              "system": "http://loinc.org",
              "code": "69441-4",
              "display": "Other significant causes or conditions of death"
            }
          ]
        },
        "subject": {
          "reference": "urn:uuid:d6349c2a-f58e-48cc-b4b2-b5cf6a792a55"
        },
        "performer": [
          {
            "reference": "urn:uuid:ac069540-a993-11ed-afa1-0242ac120002"
          }
        ],
        "valueCodeableConcept": {
          "text": "other cause"
        }
      }
    },
    {
      "fullUrl": "urn:uuid:2e955a4d-296f-40e1-a22e-cffe7df9c1a8",
      "resource": {
        "resourceType": "Procedure",
        "id": "2e955a4d-296f-40e1-a22e-cffe7df9c1a8",
        "meta": {
          "profile": [
            "http://hl7.org/fhir/us/vrdr/StructureDefinition/vrdr-death-certification"
          ]
        },
        "status": "completed",
        "category": {
          "coding": [
            {
              "system": "http://snomed.info/sct",
              "code": "103693007"
            }
          ]
        },
        "code": {
          "coding": [
            {
              "system": "http://snomed.info/sct",
              "code": "308646001"
            }
          ]
        },
        "subject": {
          "reference": "urn:uuid:d6349c2a-f58e-48cc-b4b2-b5cf6a792a55"
        },
        "performedDateTime": "2024-07-23",
        "performer": [
          {
            "function": {
              "coding": [
                {
                  "system": "http://snomed.info/sct",
                  "code": "455381000124109",
                  "display": "Death certification by medical examiner or coroner (procedure)"
                }
              ]
            },
            "actor": {
              "reference": "urn:uuid:ac069540-a993-11ed-afa1-0242ac120002"
            }
          }
        ]
      }
    },
    {
      "fullUrl": "urn:uuid:853eebc3-1921-4dc0-8d05-e512d0b08745",
      "resource": {
        "resourceType": "Observation",
        "id": "853eebc3-1921-4dc0-8d05-e512d0b08745",
        "meta": {
          "profile": [
            "http://mortalityreporting.github.io/nvdrs-ig/StructureDefinition/vdrs-number-of-victims"
          ]
        },
        "status": "final",
        "code": {
          "coding": [
            {
              "system": "http://mortalityreporting.github.io/nvdrs-ig/CodeSystem/nvdrs-custom-code-system",
              "code": "number-of-victims",
              "display": "Number of Victims (Non Fatal)"
            }
          ]
        },
        "subject": {
          "reference": "urn:uuid:d6349c2a-f58e-48cc-b4b2-b5cf6a792a55"
        },
        "valueInteger": 34
      }
    }
  ]
}