{
  "resourceType": "Bundle",
  "meta": {
    "profile": [
      "http://mortalityreporting.github.io/nvdrs-ig/StructureDefinition/nvdrs-document-bundle"
    ]
  },
  "identifier": {
    "system": "urn:gtri:heat-hisp:nvdrs-testing",
    "value": "urn:uuid:6ed56cca-f53f-4b82-90a4-6233bf55ecc4"
  },
  "type": "document",
  "timestamp": "2024-07-09T18:23:17.250904-04:00",
  "entry": [
    {
      "fullUrl": "urn:uuid:6241b137-3000-4719-91b5-26df13772cda",
      "resource": {
        "resourceType": "Composition",
        "id": "6241b137-3000-4719-91b5-26df13772cda",
        "meta": {
          "profile": [
            "http://mortalityreporting.github.io/nvdrs-ig/StructureDefinition/nvdrs-composition"
          ]
        },
        "extension": [
          {
            "url": "http://mortalityreporting.github.io/nvdrs-ig/StructureDefinition/nvdrs-force-new-record-extension",
            "valueBoolean": true
          }
        ],
        "status": "final",
        "type": {
          "coding": [
            {
              "system": "http://mortalityreporting.github.io/nvdrs-ig/CodeSystem/nvdrs-custom-code-system",
              "code": "cme-report",
              "display": "C/ME Report"
            }
          ]
        },
        "subject": {
          "reference": "urn:uuid:84738fac-c4d6-4f3b-aacb-88d45b08ea7f"
        },
        "date": "2024-07-09T18:23:17.212927-04:00",
        "author": [
          {
            "reference": "urn:uuid:ac069540-a993-11ed-afa1-0242ac120002"
          }
        ],
        "title": "NVDRS Document",
        "section": [
          {
            "title": "Injury and Death",
            "code": {
              "coding": [
                {
                  "system": "http://mortalityreporting.github.io/nvdrs-ig/CodeSystem/nvdrs-custom-code-system",
                  "code": "injury-and-death",
                  "display": "Injury and Death"
                }
              ]
            },
            "entry": [
              {
                "reference": "urn:uuid:cbd56894-c5a4-4ac2-9eb5-fdf871f67776"
              },
              {
                "reference": "urn:uuid:91bdc05e-eb32-4081-a119-3a9dd5f8e14c"
              },
              {
                "reference": "urn:uuid:e2f9d018-6fa2-4eac-82ca-56d865a55f35"
              },
              {
                "reference": "urn:uuid:7f6a3282-5757-4472-84b0-bd6be3a519cc"
              },
              {
                "reference": "urn:uuid:1e874e43-bff6-4e1c-ab87-17a098ecce8c"
              },
              {
                "reference": "urn:uuid:f6179627-3c3b-444f-9875-46affca2579d"
              }
            ]
          },
          {
            "title": "Circumstances",
            "code": {
              "coding": [
                {
                  "system": "http://mortalityreporting.github.io/nvdrs-ig/CodeSystem/nvdrs-custom-code-system",
                  "code": "circumstances",
                  "display": "Circumstances"
                }
              ]
            },
            "entry": [
              {
                "reference": "urn:uuid:78e8a60c-edd9-48f6-bbda-36d3d10c6624"
              },
              {
                "reference": "urn:uuid:7ae713f3-9457-43eb-999a-3b0db2cec3fa"
              },
              {
                "reference": "urn:uuid:ff2965af-2aa1-43ff-be98-8f23f5c7ea17"
              },
              {
                "reference": "urn:uuid:824a7752-c39d-4378-88cb-323a1c02947d"
              },
              {
                "reference": "urn:uuid:b23f714e-3b80-4fc3-aa25-6f2ff4846469"
              },
              {
                "reference": "urn:uuid:4089891b-9fe0-4a17-8b89-f57a5a76699a"
              },
              {
                "reference": "urn:uuid:07cf2d47-01a2-4395-9648-6a851c1a1da9"
              },
              {
                "reference": "urn:uuid:877c7d33-35e5-4684-a50f-42d9c1555192"
              },
              {
                "reference": "urn:uuid:0656a23c-0d12-4631-9391-6057d44c91f9"
              },
              {
                "reference": "urn:uuid:db3ee97e-af94-4372-be04-e02598cdd5b2"
              },
              {
                "reference": "urn:uuid:08345ae9-6ead-49ed-9692-8d13e9d77a22"
              },
              {
                "reference": "urn:uuid:0b60eed5-086e-42db-9173-f7ccae843d1c"
              },
              {
                "reference": "urn:uuid:4cb14167-8000-43e0-bcd9-cfdf27c3589d"
              }
            ]
          },
          {
            "title": "Toxicology",
            "code": {
              "coding": [
                {
                  "system": "http://mortalityreporting.github.io/nvdrs-ig/CodeSystem/nvdrs-custom-code-system",
                  "code": "toxicology",
                  "display": "Toxicology"
                }
              ]
            },
            "entry": [
              {
                "reference": "urn:uuid:85b0d3c3-9371-48f4-b20a-39887fc8a39f"
              },
              {
                "reference": "urn:uuid:8141a115-b480-4c14-a621-71f65e66b21a"
              },
              {
                "reference": "urn:uuid:efe3ec4d-5e30-4750-8349-44798140c76c"
              },
              {
                "reference": "urn:uuid:19fd9bc9-274b-4493-964e-3d2ccb75b7a5"
              },
              {
                "reference": "urn:uuid:b661fbf7-cd9e-45c8-b581-dfc9243e83e6"
              },
              {
                "reference": "urn:uuid:a69bfdd9-9a2a-409c-bc5f-7d0a936648b9"
              }
            ]
          },
          {
            "title": "Demographics",
            "code": {
              "coding": [
                {
                  "system": "http://mortalityreporting.github.io/nvdrs-ig/CodeSystem/nvdrs-custom-code-system",
                  "code": "demographics",
                  "display": "Demographics"
                }
              ]
            },
            "entry": [
              {
                "reference": "urn:uuid:663c4a7f-bfbe-40b6-b329-d538b879a676"
              },
              {
                "reference": "urn:uuid:6b1782ad-6907-41ef-aeae-f9ca3eefba27"
              },
              {
                "reference": "urn:uuid:f66213d0-73e9-4739-a657-7a03a73b01d0"
              },
              {
                "reference": "urn:uuid:d8e2827b-4d23-4f87-9730-5cc11a97d23f"
              },
              {
                "reference": "urn:uuid:6b77b362-de1d-4c8b-9735-e0e2d14f8c4a"
              }
            ]
          },
          {
            "title": "Weapon(s)",
            "code": {
              "coding": [
                {
                  "system": "http://mortalityreporting.github.io/nvdrs-ig/CodeSystem/nvdrs-custom-code-system",
                  "code": "weapons",
                  "display": "Weapon(s)"
                }
              ]
            },
            "entry": [
              {
                "reference": "urn:uuid:fe9cbd4b-ebeb-4449-8dc4-8c9c4247279d"
              }
            ]
          },
          {
            "title": "Cause and Manner of Death Section",
            "code": {
              "coding": [
                {
                  "system": "http://hl7.org/fhir/us/mdi/CodeSystem/CodeSystem-vr-codes",
                  "code": "cause-manner",
                  "display": "Cause and Manner of Death Section"
                }
              ]
            },
            "entry": [
              {
                "reference": "urn:uuid:2fcd18fe-1276-42fa-be77-e8e5f5d01f49"
              },
              {
                "reference": "urn:uuid:5d284bef-fd6c-4c8e-b254-b4d506890a69"
              },
              {
                "reference": "urn:uuid:31523d6a-2110-4539-8689-506ad04c2983"
              },
              {
                "reference": "urn:uuid:1e3e4cf5-b0d7-490b-b005-57a9e57a3e95"
              },
              {
                "reference": "urn:uuid:d9236edd-9c84-41b1-b5a9-e35fd3bd8414"
              }
            ]
          },
          {
            "title": "Jurisdiction Section",
            "code": {
              "coding": [
                {
                  "system": "http://hl7.org/fhir/us/mdi/CodeSystem/CodeSystem-vr-codes",
                  "code": "jurisdiction",
                  "display": "Jurisdiction Section"
                }
              ]
            },
            "entry": [
              {
                "reference": "urn:uuid:5c8fd358-8d78-46e3-b01c-fd69ce9d52b2"
              }
            ]
          },
          {
            "title": "Appendix",
            "code": {
              "coding": [
                {
                  "system": "urn:vdrs:document-sections",
                  "code": "appenddix",
                  "display": "Appendix"
                }
              ]
            },
            "entry": [
              {
                "reference": "urn:uuid:3a580c3b-1fca-4689-8ff3-ee4914caff40"
              }
            ]
          }
        ]
      }
    },
    {
      "fullUrl": "urn:uuid:84738fac-c4d6-4f3b-aacb-88d45b08ea7f",
      "resource": {
        "resourceType": "Patient",
        "id": "84738fac-c4d6-4f3b-aacb-88d45b08ea7f",
        "meta": {
          "lastUpdated": "2024-07-09T18:23:17.185738-04:00",
          "profile": [
            "http://hl7.org/fhir/us/vrdr/StructureDefinition/vrdr-cause-of-death-part2"
          ]
        },
        "extension": [
          {
            "url": "http://hl7.org/fhir/us/core/StructureDefinition/us-core-race",
            "extension": [
              {
                "url": "ombCategory",
                "valueCoding": {
                  "system": "http://terminology.hl7.org/CodeSystem/v3-NullFlavor",
                  "code": "UNK",
                  "display": "unknown"
                }
              },
              {
                "url": "detailed",
                "valueCoding": {
                  "system": "http://terminology.hl7.org/CodeSystem/v3-NullFlavor",
                  "code": "UNK",
                  "display": "unknown"
                }
              },
              {
                "url": "text",
                "valueString": "unknown"
              }
            ]
          },
          {
            "url": "http://hl7.org/fhir/us/core/StructureDefinition/us-core-ethnicity",
            "extension": [
              {
                "url": "ombCategory",
                "valueCoding": {
                  "system": "urn:oid:2.16.840.1.113883.6.238",
                  "code": "2135-2",
                  "display": "Hispanic or Latino"
                }
              },
              {
                "url": "detailed",
                "valueCoding": {
                  "system": "urn:oid:2.16.840.1.113883.6.238",
                  "code": "2149-3",
                  "display": "Mexican American"
                }
              },
              {
                "url": "text",
                "valueString": "Mexican American"
              }
            ]
          }
        ],
        "identifier": [
          {
            "use": "usual",
            "type": {
              "coding": [
                {
                  "system": "http://terminology.hl7.org/CodeSystem/v2-0203",
                  "code": "SB",
                  "display": "Social Beneficiary Identifier"
                }
              ]
            },
            "system": "http://hl7.org/fhir/sid/us-ssn",
            "value": "55555555"
          }
        ],
        "name": [
          {
            "use": "official",
            "family": "Cane",
            "given": [
              "Jhon",
              "Michael"
            ],
            "suffix": [
              "First"
            ]
          },
          {
            "use": "nickname",
            "family": "NameAKA"
          }
        ],
        "gender": "male",
        "birthDate": "2000-04-23",
        "address": [
          {
            "line": [
              "9127 Katy Freeway"
            ],
            "city": "Houston",
            "state": "Texas",
            "postalCode": "77024",
            "country": "United States"
          }
        ]
      }
    },
    {
      "fullUrl": "urn:uuid:ac069540-a993-11ed-afa1-0242ac120002",
      "resource": {
        "resourceType": "Practitioner",
        "id": "ac069540-a993-11ed-afa1-0242ac120002",
        "identifier": [
          {
            "system": "http://hl7.org/fhir/sid/us-npi",
            "value": "3333445555"
          }
        ],
        "name": [
          {
            "use": "official",
            "family": "Jones",
            "given": [
              "Sam"
            ],
            "prefix": [
              "Dr"
            ]
          }
        ],
        "telecom": [
          {
            "system": "phone",
            "value": "134-456-7890",
            "use": "work"
          }
        ],
        "address": [
          {
            "extension": [
              {
                "url": "http://hl7.org/fhir/us/vr-common-library/StructureDefinition/StreetName",
                "valueString": "Olympic Blvd"
              }
            ],
            "use": "work",
            "type": "physical",
            "line": [
              "567 Coda Blvd"
            ],
            "city": "Atlanta",
            "district": "Fulton County",
            "_district": {
              "extension": [
                {
                  "url": "http://hl7.org/fhir/us/vr-common-library/StructureDefinition/DistrictCode",
                  "valuePositiveInt": 4000
                }
              ]
            },
            "state": "GA",
            "postalCode": "30318",
            "country": "USA"
          }
        ]
      }
    },
    {
      "fullUrl": "urn:uuid:cbd56894-c5a4-4ac2-9eb5-fdf871f67776",
      "resource": {
        "resourceType": "Observation",
        "id": "cbd56894-c5a4-4ac2-9eb5-fdf871f67776",
        "meta": {
          "lastUpdated": "2024-07-09T18:23:17.224063-04:00",
          "profile": [
            "http://mortalityreporting.github.io/nvdrs-ig/StructureDefinition/nvdrs-ems-at-scene"
          ]
        },
        "category": [
          {
            "coding": [
              {
                "system": "http://mortalityreporting.github.io/nvdrs-ig/CodeSystem/nvdrs-custom-code-system",
                "code": "injury-and-death",
                "display": "Injury and Death"
              }
            ],
            "text": "Data elements that fall under the injury and death category"
          }
        ],
        "code": {
          "coding": [
            {
              "system": "http://mortalityreporting.github.io/nvdrs-ig/CodeSystem/nvdrs-custom-code-system",
              "code": "ems-at-scene",
              "display": "EMS at Scene"
            }
          ]
        },
        "subject": {
          "reference": "urn:uuid:84738fac-c4d6-4f3b-aacb-88d45b08ea7f"
        },
        "valueCodeableConcept": {
          "coding": [
            {
              "system": "http://terminology.hl7.org/CodeSystem/v2-0136",
              "code": "Y",
              "display": "Yes"
            }
          ]
        }
      }
    },
    {
      "fullUrl": "urn:uuid:91bdc05e-eb32-4081-a119-3a9dd5f8e14c",
      "resource": {
        "resourceType": "Observation",
        "id": "91bdc05e-eb32-4081-a119-3a9dd5f8e14c",
        "meta": {
          "lastUpdated": "2024-07-09T18:23:17.224279-04:00",
          "profile": [
            "http://mortalityreporting.github.io/nvdrs-ig/StructureDefinition/nvdrs-number-of-bullets"
          ]
        },
        "category": [
          {
            "coding": [
              {
                "system": "http://mortalityreporting.github.io/nvdrs-ig/CodeSystem/nvdrs-custom-code-system",
                "code": "injury-and-death",
                "display": "Injury and Death"
              }
            ],
            "text": "Data elements that fall under the injury and death category"
          }
        ],
        "code": {
          "coding": [
            {
              "system": "http://mortalityreporting.github.io/nvdrs-ig/CodeSystem/nvdrs-custom-code-system",
              "code": "number-of-bullets",
              "display": "Number of Bullets"
            }
          ]
        },
        "subject": {
          "reference": "urn:uuid:84738fac-c4d6-4f3b-aacb-88d45b08ea7f"
        },
        "valueInteger": 3
      }
    },
    {
      "fullUrl": "urn:uuid:e2f9d018-6fa2-4eac-82ca-56d865a55f35",
      "resource": {
        "resourceType": "Observation",
        "id": "e2f9d018-6fa2-4eac-82ca-56d865a55f35",
        "meta": {
          "lastUpdated": "2024-07-09T18:23:17.22447-04:00",
          "profile": [
            "http://mortalityreporting.github.io/nvdrs-ig/StructureDefinition/nvdrs-victim-in-custody-when-injured"
          ]
        },
        "category": [
          {
            "coding": [
              {
                "system": "http://mortalityreporting.github.io/nvdrs-ig/CodeSystem/nvdrs-custom-code-system",
                "code": "injury-and-death",
                "display": "Injury and Death"
              }
            ],
            "text": "Data elements that fall under the injury and death category"
          }
        ],
        "code": {
          "coding": [
            {
              "system": "http://mortalityreporting.github.io/nvdrs-ig/CodeSystem/nvdrs-custom-code-system",
              "code": "victim-in-custody-when-injured",
              "display": "Victim in custody when injured"
            }
          ]
        },
        "subject": {
          "reference": "urn:uuid:84738fac-c4d6-4f3b-aacb-88d45b08ea7f"
        },
        "valueCodeableConcept": {
          "coding": [
            {
              "system": "http://terminology.hl7.org/CodeSystem/v2-0136",
              "code": "Y",
              "display": "Yes"
            }
          ]
        }
      }
    },
    {
      "fullUrl": "urn:uuid:7f6a3282-5757-4472-84b0-bd6be3a519cc",
      "resource": {
        "resourceType": "Observation",
        "id": "7f6a3282-5757-4472-84b0-bd6be3a519cc",
        "meta": {
          "profile": [
            "http://hl7.org/fhir/us/vrdr/StructureDefinition/vrdr-injury-incident"
          ]
        },
        "code": {
          "coding": [
            {
              "system": "http://loinc.org",
              "code": "11374-6"
            }
          ]
        },
        "subject": {
          "reference": "urn:uuid:84738fac-c4d6-4f3b-aacb-88d45b08ea7f"
        },
        "component": [
          {
            "code": {
              "coding": [
                {
                  "system": "http://loinc.org",
                  "code": "69444-8"
                }
              ]
            },
            "valueCodeableConcept": {
              "coding": [
                {
                  "system": "http://terminology.hl7.org/CodeSystem/v2-0136",
                  "code": "Y",
                  "display": "Yes"
                }
              ]
            }
          },
          {
            "code": {
              "coding": [
                {
                  "system": "http://loinc.org",
                  "code": "69450-5"
                }
              ]
            },
            "valueString": "company"
          },
          {
            "code": {
              "coding": [
                {
                  "system": "http://loinc.org",
                  "code": "69451-3"
                }
              ]
            },
            "valueCodeableConcept": {
              "coding": [
                {
                  "system": "http://terminology.hl7.org/CodeSystem/v3-NullFlavor",
                  "code": "OTH",
                  "display": "other"
                }
              ],
              "text": "Rear Right"
            }
          }
        ]
      }
    },
    {
      "fullUrl": "urn:uuid:1e874e43-bff6-4e1c-ab87-17a098ecce8c",
      "resource": {
        "resourceType": "Location",
        "id": "1e874e43-bff6-4e1c-ab87-17a098ecce8c",
        "meta": {
          "profile": [
            "http://hl7.org/fhir/us/vr-common-library/StructureDefinition/Location-vr"
          ]
        },
        "type": [
          {
            "coding": [
              {
                "system": "http://hl7.org/fhir/us/vrdr/CodeSystem/vrdr-location-type-cs",
                "code": "injury",
                "display": "Injury Location"
              }
            ]
          }
        ],
        "address": {
          "line": [
            "27421 Valley Center Road"
          ],
          "city": "Valley Center",
          "district": "San Diego",
          "state": "California",
          "postalCode": "92082",
          "country": "United States"
        }
      }
    },
    {
      "fullUrl": "urn:uuid:f6179627-3c3b-444f-9875-46affca2579d",
      "resource": {
        "resourceType": "Observation",
        "id": "f6179627-3c3b-444f-9875-46affca2579d",
        "meta": {
          "profile": [
            "http://hl7.org/fhir/us/vr-common-library/StructureDefinition/Observation-autopsy-performed-indicator-vr"
          ]
        },
        "code": {
          "coding": [
            {
              "system": "http://loinc.org",
              "code": "85699-7",
              "display": "Autopsy was performed"
            }
          ]
        },
        "subject": {
          "reference": "urn:uuid:84738fac-c4d6-4f3b-aacb-88d45b08ea7f"
        },
        "valueCodeableConcept": {
          "coding": [
            {
              "system": "http://terminology.hl7.org/CodeSystem/v2-0136",
              "code": "N",
              "display": "No"
            }
          ]
        }
      }
    },
    {
      "fullUrl": "urn:uuid:78e8a60c-edd9-48f6-bbda-36d3d10c6624",
      "resource": {
        "resourceType": "Observation",
        "id": "78e8a60c-edd9-48f6-bbda-36d3d10c6624",
        "meta": {
          "profile": [
            "http://mortalityreporting.github.io/nvdrs-ig/StructureDefinition/nvdrs-circumstances",
            "http://mortalityreporting.github.io/nvdrs-ig/StructureDefinition/nvdrs-current-depressed-mood"
          ]
        },
        "category": [
          {
            "coding": [
              {
                "system": "http://mortalityreporting.github.io/nvdrs-ig/CodeSystem/nvdrs-custom-code-system",
                "code": "circumstances",
                "display": "Circumstances"
              }
            ],
            "text": "Data elements that fall under the circumstances category"
          }
        ],
        "code": {
          "coding": [
            {
              "system": "http://mortalityreporting.github.io/nvdrs-ig/CodeSystem/nvdrs-custom-code-system",
              "code": "current-depressed-mood",
              "display": "Current depressed mood"
            }
          ]
        },
        "subject": {
          "reference": "urn:uuid:84738fac-c4d6-4f3b-aacb-88d45b08ea7f"
        },
        "valueCodeableConcept": {
          "coding": [
            {
              "system": "http://terminology.hl7.org/CodeSystem/v2-0136",
              "code": "Y",
              "display": "Yes"
            }
          ]
        }
      }
    },
    {
      "fullUrl": "urn:uuid:7ae713f3-9457-43eb-999a-3b0db2cec3fa",
      "resource": {
        "resourceType": "Observation",
        "id": "7ae713f3-9457-43eb-999a-3b0db2cec3fa",
        "meta": {
          "profile": [
            "http://mortalityreporting.github.io/nvdrs-ig/StructureDefinition/vdrs-history-of-mental-illness"
          ]
        },
        "code": {
          "coding": [
            {
              "system": "http://mortalityreporting.github.io/nvdrs-ig/CodeSystem/nvdrs-custom-code-system",
              "code": "history-of-mental-illness",
              "display": "History of Mental Illness"
            }
          ]
        },
        "subject": {
          "reference": "urn:uuid:84738fac-c4d6-4f3b-aacb-88d45b08ea7f"
        },
        "valueCodeableConcept": {
          "coding": [
            {
              "system": "http://terminology.hl7.org/CodeSystem/v2-0136",
              "code": "Y",
              "display": "Yes"
            }
          ]
        }
      }
    },
    {
      "fullUrl": "urn:uuid:ff2965af-2aa1-43ff-be98-8f23f5c7ea17",
      "resource": {
        "resourceType": "Observation",
        "id": "ff2965af-2aa1-43ff-be98-8f23f5c7ea17",
        "meta": {
          "lastUpdated": "2024-07-09T18:23:17.228737-04:00",
          "profile": [
            "http://mortalityreporting.github.io/nvdrs-ig/StructureDefinition/nvdrs-history-of-self-harm"
          ]
        },
        "category": [
          {
            "coding": [
              {
                "system": "http://mortalityreporting.github.io/nvdrs-ig/CodeSystem/nvdrs-custom-code-system",
                "code": "circumstances",
                "display": "Circumstances"
              }
            ],
            "text": "Data elements that fall under the circumstances category"
          }
        ],
        "code": {
          "coding": [
            {
              "system": "http://mortalityreporting.github.io/nvdrs-ig/CodeSystem/nvdrs-custom-code-system",
              "code": "self-harm",
              "display": "Non-suicidal self-Injury/self-harm"
            }
          ],
          "text": "History of non-suicidal self-Injury/self-harm"
        },
        "subject": {
          "reference": "urn:uuid:84738fac-c4d6-4f3b-aacb-88d45b08ea7f"
        },
        "valueCodeableConcept": {
          "coding": [
            {
              "system": "http://terminology.hl7.org/CodeSystem/v2-0136",
              "code": "Y",
              "display": "Yes"
            }
          ]
        }
      }
    },
    {
      "fullUrl": "urn:uuid:824a7752-c39d-4378-88cb-323a1c02947d",
      "resource": {
        "resourceType": "Observation",
        "id": "824a7752-c39d-4378-88cb-323a1c02947d",
        "meta": {
          "lastUpdated": "2024-07-09T18:23:17.228825-04:00",
          "profile": [
            "http://mortalityreporting.github.io/nvdrs-ig/StructureDefinition/nvdrs-random-violence"
          ]
        },
        "category": [
          {
            "coding": [
              {
                "system": "http://mortalityreporting.github.io/nvdrs-ig/CodeSystem/nvdrs-custom-code-system",
                "code": "circumstances",
                "display": "Circumstances"
              }
            ],
            "text": "Data elements that fall under the circumstances category"
          }
        ],
        "code": {
          "coding": [
            {
              "system": "http://mortalityreporting.github.io/nvdrs-ig/CodeSystem/nvdrs-custom-code-system",
              "code": "random-violence",
              "display": "Incident is Random Violence"
            }
          ]
        },
        "subject": {
          "reference": "urn:uuid:84738fac-c4d6-4f3b-aacb-88d45b08ea7f"
        },
        "valueCodeableConcept": {
          "coding": [
            {
              "system": "http://terminology.hl7.org/CodeSystem/v2-0136",
              "code": "Y",
              "display": "Yes"
            }
          ]
        }
      }
    },
    {
      "fullUrl": "urn:uuid:b23f714e-3b80-4fc3-aa25-6f2ff4846469",
      "resource": {
        "resourceType": "Observation",
        "id": "b23f714e-3b80-4fc3-aa25-6f2ff4846469",
        "meta": {
          "lastUpdated": "2024-07-09T18:23:17.228907-04:00",
          "profile": [
            "http://mortalityreporting.github.io/nvdrs-ig/StructureDefinition/nvdrs-school-problem"
          ]
        },
        "category": [
          {
            "coding": [
              {
                "system": "http://mortalityreporting.github.io/nvdrs-ig/CodeSystem/nvdrs-custom-code-system",
                "code": "circumstances",
                "display": "Circumstances"
              }
            ],
            "text": "Data elements that fall under the circumstances category"
          }
        ],
        "code": {
          "coding": [
            {
              "system": "http://mortalityreporting.github.io/nvdrs-ig/CodeSystem/nvdrs-custom-code-system",
              "code": "school-problem",
              "display": "School Problem"
            }
          ]
        },
        "subject": {
          "reference": "urn:uuid:84738fac-c4d6-4f3b-aacb-88d45b08ea7f"
        },
        "valueCodeableConcept": {
          "coding": [
            {
              "system": "http://terminology.hl7.org/CodeSystem/v2-0136",
              "code": "Y",
              "display": "Yes"
            }
          ]
        }
      }
    },
    {
      "fullUrl": "urn:uuid:4089891b-9fe0-4a17-8b89-f57a5a76699a",
      "resource": {
        "resourceType": "Observation",
        "id": "4089891b-9fe0-4a17-8b89-f57a5a76699a",
        "meta": {
          "lastUpdated": "2024-07-09T18:23:17.228988-04:00",
          "profile": [
            "http://mortalityreporting.github.io/nvdrs-ig/StructureDefinition/nvdrs-history-of-suicide-attempts"
          ]
        },
        "category": [
          {
            "coding": [
              {
                "system": "http://mortalityreporting.github.io/nvdrs-ig/CodeSystem/nvdrs-custom-code-system",
                "code": "circumstances",
                "display": "Circumstances"
              }
            ],
            "text": "Data elements that fall under the circumstances category"
          }
        ],
        "code": {
          "coding": [
            {
              "system": "http://mortalityreporting.github.io/nvdrs-ig/CodeSystem/nvdrs-custom-code-system",
              "code": "history-of-suicide-attempts",
              "display": "History of Suicide Attempts"
            }
          ]
        },
        "subject": {
          "reference": "urn:uuid:84738fac-c4d6-4f3b-aacb-88d45b08ea7f"
        },
        "valueCodeableConcept": {
          "coding": [
            {
              "system": "http://terminology.hl7.org/CodeSystem/v2-0136",
              "code": "Y",
              "display": "Yes"
            }
          ]
        }
      }
    },
    {
      "fullUrl": "urn:uuid:07cf2d47-01a2-4395-9648-6a851c1a1da9",
      "resource": {
        "resourceType": "Observation",
        "id": "07cf2d47-01a2-4395-9648-6a851c1a1da9",
        "meta": {
          "profile": [
            "http://mortalityreporting.github.io/nvdrs-ig/StructureDefinition/vdrs-suicide-note"
          ]
        },
        "code": {
          "coding": [
            {
              "system": "http://mortalityreporting.github.io/nvdrs-ig/CodeSystem/nvdrs-custom-code-system",
              "code": "suicide-note",
              "display": "Suicide Note"
            }
          ]
        },
        "subject": {
          "reference": "urn:uuid:84738fac-c4d6-4f3b-aacb-88d45b08ea7f"
        },
        "valueString": "Sorry.. I am ..."
      }
    },
    {
      "fullUrl": "urn:uuid:877c7d33-35e5-4684-a50f-42d9c1555192",
      "resource": {
        "resourceType": "Observation",
        "id": "877c7d33-35e5-4684-a50f-42d9c1555192",
        "meta": {
          "lastUpdated": "2024-07-09T18:23:17.229176-04:00",
          "profile": [
            "http://mortalityreporting.github.io/nvdrs-ig/StructureDefinition/nvdrs-history-alcohol-use"
          ]
        },
        "category": [
          {
            "coding": [
              {
                "system": "http://mortalityreporting.github.io/nvdrs-ig/CodeSystem/nvdrs-custom-code-system",
                "code": "circumstances",
                "display": "Circumstances"
              }
            ],
            "text": "Data elements that fall under the circumstances category"
          }
        ],
        "code": {
          "coding": [
            {
              "system": "http://loinc.org",
              "code": "11331-6",
              "display": "History of Alcohol Use"
            }
          ]
        },
        "subject": {
          "reference": "urn:uuid:84738fac-c4d6-4f3b-aacb-88d45b08ea7f"
        },
        "valueCodeableConcept": {
          "coding": [
            {
              "system": "http://terminology.hl7.org/CodeSystem/v2-0136",
              "code": "Y",
              "display": "Yes"
            }
          ]
        }
      }
    },
    {
      "fullUrl": "urn:uuid:0656a23c-0d12-4631-9391-6057d44c91f9",
      "resource": {
        "resourceType": "Observation",
        "id": "0656a23c-0d12-4631-9391-6057d44c91f9",
        "meta": {
          "profile": [
            "http://mortalityreporting.github.io/nvdrs-ig/StructureDefinition/nvdrs-circumstances"
          ]
        },
        "category": [
          {
            "coding": [
              {
                "system": "http://mortalityreporting.github.io/nvdrs-ig/CodeSystem/nvdrs-custom-code-system",
                "code": "circumstances",
                "display": "Circumstances"
              }
            ],
            "text": "Data elements that fall under the circumstances category"
          }
        ],
        "code": {
          "coding": [
            {
              "system": "http://mortalityreporting.github.io/nvdrs-ig/CodeSystem/nvdrs-custom-code-system",
              "code": "drug-involvement",
              "display": "Drug Involvement"
            }
          ]
        },
        "subject": {
          "reference": "urn:uuid:84738fac-c4d6-4f3b-aacb-88d45b08ea7f"
        },
        "valueCodeableConcept": {
          "coding": [
            {
              "system": "http://terminology.hl7.org/CodeSystem/v2-0136",
              "code": "Y",
              "display": "Yes"
            }
          ]
        }
      }
    },
    {
      "fullUrl": "urn:uuid:db3ee97e-af94-4372-be04-e02598cdd5b2",
      "resource": {
        "resourceType": "Observation",
        "id": "db3ee97e-af94-4372-be04-e02598cdd5b2",
        "meta": {
          "lastUpdated": "2024-07-09T18:23:17.229256-04:00",
          "profile": [
            "http://mortalityreporting.github.io/nvdrs-ig/StructureDefinition/nvdrs-death-abuse"
          ]
        },
        "category": [
          {
            "coding": [
              {
                "system": "http://mortalityreporting.github.io/nvdrs-ig/CodeSystem/nvdrs-custom-code-system",
                "code": "circumstances",
                "display": "Circumstances"
              }
            ],
            "text": "Data elements that fall under the circumstances category"
          }
        ],
        "code": {
          "coding": [
            {
              "system": "http://mortalityreporting.github.io/nvdrs-ig/CodeSystem/nvdrs-custom-code-system",
              "code": "death-abuse",
              "display": "Abuse or neglect led to death"
            }
          ]
        },
        "valueCodeableConcept": {
          "coding": [
            {
              "system": "http://terminology.hl7.org/CodeSystem/v2-0136",
              "code": "N",
              "display": "No"
            }
          ]
        }
      }
    },
    {
      "fullUrl": "urn:uuid:08345ae9-6ead-49ed-9692-8d13e9d77a22",
      "resource": {
        "resourceType": "Observation",
        "id": "08345ae9-6ead-49ed-9692-8d13e9d77a22",
        "meta": {
          "lastUpdated": "2024-07-09T18:23:17.229334-04:00",
          "profile": [
            "http://mortalityreporting.github.io/nvdrs-ig/StructureDefinition/nvdrs-gang-related"
          ]
        },
        "category": [
          {
            "coding": [
              {
                "system": "http://mortalityreporting.github.io/nvdrs-ig/CodeSystem/nvdrs-custom-code-system",
                "code": "circumstances",
                "display": "Circumstances"
              }
            ],
            "text": "Data elements that fall under the circumstances category"
          }
        ],
        "code": {
          "coding": [
            {
              "system": "http://mortalityreporting.github.io/nvdrs-ig/CodeSystem/nvdrs-custom-code-system",
              "code": "gang-related",
              "display": "Gang Related"
            }
          ],
          "text": "Death was gang related"
        },
        "subject": {
          "reference": "urn:uuid:84738fac-c4d6-4f3b-aacb-88d45b08ea7f"
        },
        "valueCodeableConcept": {
          "coding": [
            {
              "system": "http://mortalityreporting.github.io/nvdrs-ig/CodeSystem/nvdrs-coding-manual-cs",
              "code": "GangRelated1",
              "display": "Yes, gang motivated"
            }
          ]
        }
      }
    },
    {
      "fullUrl": "urn:uuid:0b60eed5-086e-42db-9173-f7ccae843d1c",
      "resource": {
        "resourceType": "Observation",
        "id": "0b60eed5-086e-42db-9173-f7ccae843d1c",
        "meta": {
          "lastUpdated": "2024-07-09T18:23:17.229842-04:00",
          "profile": [
            "http://mortalityreporting.github.io/nvdrs-ig/StructureDefinition/nvdrs-drive-by-shooting"
          ]
        },
        "category": [
          {
            "coding": [
              {
                "system": "http://mortalityreporting.github.io/nvdrs-ig/CodeSystem/nvdrs-custom-code-system",
                "code": "circumstances",
                "display": "Circumstances"
              }
            ],
            "text": "Data elements that fall under the circumstances category"
          }
        ],
        "code": {
          "coding": [
            {
              "system": "http://mortalityreporting.github.io/nvdrs-ig/CodeSystem/nvdrs-custom-code-system",
              "code": "drive-by-shooting",
              "display": "Drive-by Shooting"
            }
          ]
        },
        "subject": {
          "reference": "urn:uuid:84738fac-c4d6-4f3b-aacb-88d45b08ea7f"
        },
        "valueCodeableConcept": {
          "coding": [
            {
              "system": "http://terminology.hl7.org/CodeSystem/v2-0136",
              "code": "Y",
              "display": "Yes"
            }
          ]
        }
      }
    },
    {
      "fullUrl": "urn:uuid:4cb14167-8000-43e0-bcd9-cfdf27c3589d",
      "resource": {
        "resourceType": "Observation",
        "id": "4cb14167-8000-43e0-bcd9-cfdf27c3589d",
        "meta": {
          "profile": [
            "http://mortalityreporting.github.io/nvdrs-ig/StructureDefinition/nvdrs-playing-with-firearm"
          ]
        },
        "code": {
          "coding": [
            {
              "system": "http://mortalityreporting.github.io/nvdrs-ig/CodeSystem/nvdrs-custom-code-system",
              "code": "playing-with-firearm",
              "display": "Playing with Firearm"
            }
          ],
          "text": "Playing with Firearm"
        },
        "subject": {
          "reference": "urn:uuid:84738fac-c4d6-4f3b-aacb-88d45b08ea7f"
        },
        "valueCodeableConcept": {
          "coding": [
            {
              "system": "http://terminology.hl7.org/CodeSystem/v2-0136",
              "code": "Y",
              "display": "Yes"
            }
          ]
        }
      }
    },
    {
      "fullUrl": "urn:uuid:85b0d3c3-9371-48f4-b20a-39887fc8a39f",
      "resource": {
        "resourceType": "Observation",
        "id": "85b0d3c3-9371-48f4-b20a-39887fc8a39f",
        "meta": {
          "profile": [
            "http://hl7.org/fhir/us/mdi/StructureDefinition/Observation-toxicology-lab-result"
          ]
        },
        "category": [
          {
            "coding": [
              {
                "system": "http://terminology.hl7.org/CodeSystem/observation-category",
                "code": "laboratory",
                "display": "Laboratory"
              }
            ]
          }
        ],
        "code": {
          "text": "Alcohol"
        },
        "subject": {
          "reference": "urn:uuid:84738fac-c4d6-4f3b-aacb-88d45b08ea7f"
        },
        "valueString": "4"
      }
    },
    {
      "fullUrl": "urn:uuid:8141a115-b480-4c14-a621-71f65e66b21a",
      "resource": {
        "resourceType": "Observation",
        "id": "8141a115-b480-4c14-a621-71f65e66b21a",
        "meta": {
          "profile": [
            "http://hl7.org/fhir/us/mdi/StructureDefinition/Observation-toxicology-lab-result"
          ]
        },
        "category": [
          {
            "coding": [
              {
                "system": "http://terminology.hl7.org/CodeSystem/observation-category",
                "code": "laboratory",
                "display": "Laboratory"
              }
            ]
          }
        ],
        "code": {
          "text": "Amphetamine"
        },
        "subject": {
          "reference": "urn:uuid:84738fac-c4d6-4f3b-aacb-88d45b08ea7f"
        },
        "valueString": "8 mg"
      }
    },
    {
      "fullUrl": "urn:uuid:efe3ec4d-5e30-4750-8349-44798140c76c",
      "resource": {
        "resourceType": "Observation",
        "id": "efe3ec4d-5e30-4750-8349-44798140c76c",
        "meta": {
          "profile": [
            "http://hl7.org/fhir/us/mdi/StructureDefinition/Observation-toxicology-lab-result"
          ]
        },
        "category": [
          {
            "coding": [
              {
                "system": "http://terminology.hl7.org/CodeSystem/observation-category",
                "code": "laboratory",
                "display": "Laboratory"
              }
            ]
          }
        ],
        "code": {
          "text": "Benzodiazepines"
        },
        "subject": {
          "reference": "urn:uuid:84738fac-c4d6-4f3b-aacb-88d45b08ea7f"
        },
        "valueString": "10 mg"
      }
    },
    {
      "fullUrl": "urn:uuid:19fd9bc9-274b-4493-964e-3d2ccb75b7a5",
      "resource": {
        "resourceType": "Observation",
        "id": "19fd9bc9-274b-4493-964e-3d2ccb75b7a5",
        "meta": {
          "profile": [
            "http://hl7.org/fhir/us/mdi/StructureDefinition/Observation-toxicology-lab-result"
          ]
        },
        "category": [
          {
            "coding": [
              {
                "system": "http://terminology.hl7.org/CodeSystem/observation-category",
                "code": "laboratory",
                "display": "Laboratory"
              }
            ]
          }
        ],
        "code": {
          "text": "Cocaine"
        },
        "subject": {
          "reference": "urn:uuid:84738fac-c4d6-4f3b-aacb-88d45b08ea7f"
        },
        "valueString": "9 mg"
      }
    },
    {
      "fullUrl": "urn:uuid:b661fbf7-cd9e-45c8-b581-dfc9243e83e6",
      "resource": {
        "resourceType": "Observation",
        "id": "b661fbf7-cd9e-45c8-b581-dfc9243e83e6",
        "meta": {
          "profile": [
            "http://hl7.org/fhir/us/mdi/StructureDefinition/Observation-toxicology-lab-result"
          ]
        },
        "category": [
          {
            "coding": [
              {
                "system": "http://terminology.hl7.org/CodeSystem/observation-category",
                "code": "laboratory",
                "display": "Laboratory"
              }
            ]
          }
        ],
        "code": {
          "text": "Opiate"
        },
        "subject": {
          "reference": "urn:uuid:84738fac-c4d6-4f3b-aacb-88d45b08ea7f"
        },
        "valueString": "11 mg"
      }
    },
    {
      "fullUrl": "urn:uuid:a69bfdd9-9a2a-409c-bc5f-7d0a936648b9",
      "resource": {
        "resourceType": "Specimen",
        "id": "a69bfdd9-9a2a-409c-bc5f-7d0a936648b9",
        "meta": {
          "profile": [
            "http://hl7.org/fhir/us/mdi/StructureDefinition/Specimen-toxicology-lab"
          ]
        },
        "type": {
          "text": "Bile specimen (specimen)"
        }
      }
    },
    {
      "fullUrl": "urn:uuid:663c4a7f-bfbe-40b6-b329-d538b879a676",
      "resource": {
        "resourceType": "Observation",
        "id": "663c4a7f-bfbe-40b6-b329-d538b879a676",
        "meta": {
          "lastUpdated": "2024-07-09T18:23:17.231119-04:00",
          "profile": [
            "http://mortalityreporting.github.io/nvdrs-ig/StructureDefinition/nvdrs-homeless-at-death"
          ]
        },
        "category": [
          {
            "coding": [
              {
                "system": "http://terminology.hl7.org/CodeSystem/observation-category",
                "code": "social-history"
              }
            ]
          },
          {
            "coding": [
              {
                "system": "http://mortalityreporting.github.io/nvdrs-ig/CodeSystem/nvdrs-custom-code-system",
                "code": "demographics",
                "display": "Demographics"
              }
            ],
            "text": "Data elements that fall under the demographics category"
          }
        ],
        "code": {
          "coding": [
            {
              "system": "http://mortalityreporting.github.io/nvdrs-ig/CodeSystem/nvdrs-custom-code-system",
              "code": "homeless-at-death",
              "display": "Homeless (at time of death)"
            }
          ]
        },
        "subject": {
          "reference": "urn:uuid:84738fac-c4d6-4f3b-aacb-88d45b08ea7f"
        },
        "valueCodeableConcept": {
          "coding": [
            {
              "system": "http://terminology.hl7.org/CodeSystem/v2-0136",
              "code": "Y",
              "display": "Yes"
            }
          ]
        }
      }
    },
    {
      "fullUrl": "urn:uuid:6b1782ad-6907-41ef-aeae-f9ca3eefba27",
      "resource": {
        "resourceType": "Observation",
        "id": "6b1782ad-6907-41ef-aeae-f9ca3eefba27",
        "meta": {
          "profile": [
            "http://hl7.org/fhir/us/vrdr/StructureDefinition/vrdr-decedent-age"
          ]
        },
        "code": {
          "coding": [
            {
              "system": "http://loinc.org",
              "code": "39016-1"
            }
          ]
        },
        "subject": {
          "reference": "urn:uuid:84738fac-c4d6-4f3b-aacb-88d45b08ea7f"
        },
        "valueQuantity": {
          "value": 24,
          "unit": "a"
        }
      }
    },
    {
      "fullUrl": "urn:uuid:f66213d0-73e9-4739-a657-7a03a73b01d0",
      "resource": {
        "resourceType": "Observation",
        "id": "f66213d0-73e9-4739-a657-7a03a73b01d0",
        "meta": {
          "profile": [
            "http://hl7.org/fhir/us/odh/StructureDefinition/odh-UsualWork"
          ]
        },
        "category": [
          {
            "coding": [
              {
                "system": "http://terminology.hl7.org/CodeSystem/observation-category",
                "code": "social-history"
              }
            ]
          }
        ],
        "code": {
          "coding": [
            {
              "system": "http://loinc.org",
              "code": "21843-8",
              "display": "History of Usual occupation"
            }
          ]
        },
        "subject": {
          "reference": "urn:uuid:84738fac-c4d6-4f3b-aacb-88d45b08ea7f"
        },
        "valueCodeableConcept": {
          "text": "Occupation"
        },
        "component": [
          {
            "code": {
              "coding": [
                {
                  "system": "http://loinc.org",
                  "code": "21844-6",
                  "display": "History of Usual industry"
                }
              ]
            },
            "valueCodeableConcept": {
              "text": "Occupation"
            }
          }
        ]
      }
    },
    {
      "fullUrl": "urn:uuid:d8e2827b-4d23-4f87-9730-5cc11a97d23f",
      "resource": {
        "resourceType": "Observation",
        "id": "d8e2827b-4d23-4f87-9730-5cc11a97d23f",
        "meta": {
          "profile": [
            "http://hl7.org/fhir/us/core/StructureDefinition/us-core-body-height"
          ]
        },
        "category": [
          {
            "coding": [
              {
                "system": "http://terminology.hl7.org/CodeSystem/observation-category",
                "code": "vital-signs"
              }
            ]
          }
        ],
        "code": {
          "coding": [
            {
              "system": "http://loinc.org",
              "code": "8302-2"
            }
          ]
        },
        "effectiveDate": "2024-07-02",
        "valueQuantity": {
          "value": 259.8,
          "unit": "cm",
          "system": "http://unitsofmeasure.org",
          "code": "cm"
        }
      }
    },
    {
      "fullUrl": "urn:uuid:6b77b362-de1d-4c8b-9735-e0e2d14f8c4a",
      "resource": {
        "resourceType": "Observation",
        "id": "6b77b362-de1d-4c8b-9735-e0e2d14f8c4a",
        "meta": {
          "profile": [
            "http://hl7.org/fhir/us/core/StructureDefinition/us-core-body-weight"
          ]
        },
        "category": [
          {
            "coding": [
              {
                "system": "http://terminology.hl7.org/CodeSystem/observation-category",
                "code": "vital-signs"
              }
            ]
          }
        ],
        "code": {
          "coding": [
            {
              "system": "http://loinc.org",
              "code": "29463-7"
            }
          ]
        },
        "effectiveDate": "2024-07-02",
        "valueQuantity": {
          "value": 185,
          "unit": "lb_av",
          "system": "http://unitsofmeasure.org",
          "code": "[lb_av]"
        }
      }
    },
    {
      "fullUrl": "urn:uuid:fe9cbd4b-ebeb-4449-8dc4-8c9c4247279d",
      "resource": {
        "resourceType": "Observation",
        "id": "fe9cbd4b-ebeb-4449-8dc4-8c9c4247279d",
        "meta": {
          "profile": [
            "http://mortalityreporting.github.io/nvdrs-ig/StructureDefinition/nvdrs-weapon-type"
          ]
        },
        "code": {
          "coding": [
            {
              "system": "http://mortalityreporting.github.io/nvdrs-ig/CodeSystem/nvdrs-custom-code-system",
              "code": "weapon-type",
              "display": "Type of Weapon"
            }
          ]
        },
        "subject": {
          "reference": "urn:uuid:84738fac-c4d6-4f3b-aacb-88d45b08ea7f"
        },
        "focus": [
          {
            "reference": "urn:uuid:33c1e452-b945-4fd9-8df2-013bd0e7b404"
          }
        ],
        "valueCodeableConcept": {
          "coding": [
            {
              "system": "http://mortalityreporting.github.io/nvdrs-ig/CodeSystem/nvdrs-coding-manual-cs",
              "code": "WeaponType1",
              "display": "Firearm"
            }
          ]
        }
      }
    },
    {
      "fullUrl": "urn:uuid:33c1e452-b945-4fd9-8df2-013bd0e7b404",
      "resource": {
        "resourceType": "Observation",
        "id": "33c1e452-b945-4fd9-8df2-013bd0e7b404",
        "meta": {
          "lastUpdated": "2024-07-09T18:23:17.232336-04:00",
          "profile": [
            "http://mortalityreporting.github.io/nvdrs-ig/StructureDefinition/nvdrs-firearm"
          ]
        },
        "extension": [
          {
            "url": "http://mortalityreporting.github.io/nvdrs-ig/StructureDefinition/nvdrs-firearm-stolen-extension",
            "valueCodeableConcept": {
              "coding": [
                {
                  "system": "http://terminology.hl7.org/CodeSystem/v2-0136",
                  "code": "Y",
                  "display": "Yes"
                }
              ]
            }
          },
          {
            "url": "http://mortalityreporting.github.io/nvdrs-ig/StructureDefinition/nvdrs-gun-stored-loaded-extension",
            "valueCodeableConcept": {
              "coding": [
                {
                  "system": "http://terminology.hl7.org/CodeSystem/v2-0136",
                  "code": "Y",
                  "display": "Yes"
                }
              ]
            }
          },
          {
            "url": "http://mortalityreporting.github.io/nvdrs-ig/StructureDefinition/firearm-serial-number",
            "valueIdentifier": {
              "system": "urn:vdrs:ncic:serialnumber",
              "value": "5555555f"
            }
          },
          {
            "url": "http://mortalityreporting.github.io/nvdrs-ig/StructureDefinition/nvdrs-firearm-owner-extension",
            "extension": [
              {
                "url": "narrative",
                "valueString": "Narrative here"
              },
              {
                "url": "reference",
                "valueReference": {
                  "reference": "urn:uuid:87c0ab41-5980-4586-8b91-d60f2438fbb8"
                }
              }
            ]
          }
        ],
        "category": [
          {
            "coding": [
              {
                "system": "http://mortalityreporting.github.io/nvdrs-ig/CodeSystem/nvdrs-custom-code-system",
                "code": "weapons",
                "display": "Weapon(s)"
              }
            ],
            "text": "Data elements that fall under the weapon(s) category"
          }
        ],
        "code": {
          "coding": [
            {
              "system": "http://mortalityreporting.github.io/nvdrs-ig/CodeSystem/nvdrs-custom-code-system",
              "code": "firearm",
              "display": "Details on Firearm"
            }
          ]
        },
        "subject": {
          "reference": "urn:uuid:84738fac-c4d6-4f3b-aacb-88d45b08ea7f"
        },
        "component": [
          {
            "code": {
              "coding": [
                {
                  "system": "http://mortalityreporting.github.io/nvdrs-ig/CodeSystem/nvdrs-custom-code-system",
                  "code": "firearm-type",
                  "display": "Firearm - Type"
                }
              ]
            },
            "valueCodeableConcept": {
              "coding": [
                {
                  "system": "http://mortalityreporting.github.io/nvdrs-ig/CodeSystem/nvdrs-coding-manual-cs",
                  "code": "FirearmType16",
                  "display": "Shotgun, Unknown Type"
                }
              ]
            }
          },
          {
            "code": {
              "coding": [
                {
                  "system": "http://mortalityreporting.github.io/nvdrs-ig/CodeSystem/nvdrs-custom-code-system",
                  "code": "firearm-make",
                  "display": "Firearm - Gun Make or NCIC Code"
                }
              ]
            },
            "valueString": "64"
          },
          {
            "code": {
              "coding": [
                {
                  "system": "http://mortalityreporting.github.io/nvdrs-ig/CodeSystem/nvdrs-custom-code-system",
                  "code": "firearm-model",
                  "display": "Firearm - Gun Model"
                }
              ]
            },
            "valueString": "512"
          },
          {
            "code": {
              "coding": [
                {
                  "system": "http://mortalityreporting.github.io/nvdrs-ig/CodeSystem/nvdrs-custom-code-system",
                  "code": "firearm-caliber",
                  "display": "Firearm - Caliber"
                }
              ]
            },
            "valueString": "556"
          }
        ]
      }
    },
    {
      "fullUrl": "urn:uuid:87c0ab41-5980-4586-8b91-d60f2438fbb8",
      "resource": {
        "resourceType": "Person",
        "id": "87c0ab41-5980-4586-8b91-d60f2438fbb8",
        "name": [
          {
            "family": "Brown",
            "given": [
              "Tiffany"
            ]
          }
        ]
      }
    },
    {
      "fullUrl": "urn:uuid:2fcd18fe-1276-42fa-be77-e8e5f5d01f49",
      "resource": {
        "resourceType": "Observation",
        "id": "2fcd18fe-1276-42fa-be77-e8e5f5d01f49",
        "meta": {
          "profile": [
            "http://hl7.org/fhir/us/mdi/StructureDefinition/Observation-mdi-cause-of-death-part1"
          ]
        },
        "status": "final",
        "code": {
          "coding": [
            {
              "system": "http://loinc.org",
              "code": "69453-9",
              "display": "Cause of death [US Standard Certificate of Death]"
            }
          ]
        },
        "subject": {
          "reference": "urn:uuid:84738fac-c4d6-4f3b-aacb-88d45b08ea7f"
        },
        "performer": [
          {
            "reference": "urn:uuid:ac069540-a993-11ed-afa1-0242ac120002"
          }
        ],
        "valueCodeableConcept": {
          "text": "Airway Occlusion - Chemical"
        },
        "component": [
          {
            "code": {
              "coding": [
                {
                  "system": "http://hl7.org/fhir/us/vrdr/CodeSystem/vrdr-component-cs",
                  "code": "lineNumber",
                  "display": "line number"
                }
              ]
            },
            "valueInteger": 1
          },
          {
            "code": {
              "coding": [
                {
                  "system": "http://loinc.org",
                  "code": "69440-6",
                  "display": "Disease onset to death interval"
                }
              ]
            },
            "valueString": "minutes"
          }
        ]
      }
    },
    {
      "fullUrl": "urn:uuid:5d284bef-fd6c-4c8e-b254-b4d506890a69",
      "resource": {
        "resourceType": "Observation",
        "id": "5d284bef-fd6c-4c8e-b254-b4d506890a69",
        "meta": {
          "profile": [
            "http://hl7.org/fhir/us/mdi/StructureDefinition/Observation-mdi-cause-of-death-part1"
          ]
        },
        "status": "final",
        "code": {
          "coding": [
            {
              "system": "http://loinc.org",
              "code": "69453-9",
              "display": "Cause of death [US Standard Certificate of Death]"
            }
          ]
        },
        "subject": {
          "reference": "urn:uuid:84738fac-c4d6-4f3b-aacb-88d45b08ea7f"
        },
        "performer": [
          {
            "reference": "urn:uuid:ac069540-a993-11ed-afa1-0242ac120002"
          }
        ],
        "valueCodeableConcept": {
          "text": "Aspiration of Food - Chemical"
        },
        "component": [
          {
            "code": {
              "coding": [
                {
                  "system": "http://hl7.org/fhir/us/vrdr/CodeSystem/vrdr-component-cs",
                  "code": "lineNumber",
                  "display": "line number"
                }
              ]
            },
            "valueInteger": 2
          },
          {
            "code": {
              "coding": [
                {
                  "system": "http://loinc.org",
                  "code": "69440-6",
                  "display": "Disease onset to death interval"
                }
              ]
            },
            "valueString": "minutes"
          }
        ]
      }
    },
    {
      "fullUrl": "urn:uuid:31523d6a-2110-4539-8689-506ad04c2983",
      "resource": {
        "resourceType": "Observation",
        "id": "31523d6a-2110-4539-8689-506ad04c2983",
        "meta": {
          "profile": [
            "http://hl7.org/fhir/us/mdi/StructureDefinition/Observation-mdi-cause-of-death-part1"
          ]
        },
        "status": "final",
        "code": {
          "coding": [
            {
              "system": "http://loinc.org",
              "code": "69453-9",
              "display": "Cause of death [US Standard Certificate of Death]"
            }
          ]
        },
        "subject": {
          "reference": "urn:uuid:84738fac-c4d6-4f3b-aacb-88d45b08ea7f"
        },
        "performer": [
          {
            "reference": "urn:uuid:ac069540-a993-11ed-afa1-0242ac120002"
          }
        ],
        "valueCodeableConcept": {
          "text": "Burns - Thermal"
        },
        "component": [
          {
            "code": {
              "coding": [
                {
                  "system": "http://hl7.org/fhir/us/vrdr/CodeSystem/vrdr-component-cs",
                  "code": "lineNumber",
                  "display": "line number"
                }
              ]
            },
            "valueInteger": 3
          },
          {
            "code": {
              "coding": [
                {
                  "system": "http://loinc.org",
                  "code": "69440-6",
                  "display": "Disease onset to death interval"
                }
              ]
            },
            "valueString": "minutes"
          }
        ]
      }
    },
    {
      "fullUrl": "urn:uuid:1e3e4cf5-b0d7-490b-b005-57a9e57a3e95",
      "resource": {
        "resourceType": "Observation",
        "id": "1e3e4cf5-b0d7-490b-b005-57a9e57a3e95",
        "meta": {
          "profile": [
            "http://hl7.org/fhir/us/mdi/StructureDefinition/Observation-mdi-cause-of-death-part1"
          ]
        },
        "status": "final",
        "code": {
          "coding": [
            {
              "system": "http://loinc.org",
              "code": "69453-9",
              "display": "Cause of death [US Standard Certificate of Death]"
            }
          ]
        },
        "subject": {
          "reference": "urn:uuid:84738fac-c4d6-4f3b-aacb-88d45b08ea7f"
        },
        "performer": [
          {
            "reference": "urn:uuid:ac069540-a993-11ed-afa1-0242ac120002"
          }
        ],
        "valueCodeableConcept": {
          "text": "Cardiac - Ruptured Aortic Aneurysm"
        },
        "component": [
          {
            "code": {
              "coding": [
                {
                  "system": "http://hl7.org/fhir/us/vrdr/CodeSystem/vrdr-component-cs",
                  "code": "lineNumber",
                  "display": "line number"
                }
              ]
            },
            "valueInteger": 4
          },
          {
            "code": {
              "coding": [
                {
                  "system": "http://loinc.org",
                  "code": "69440-6",
                  "display": "Disease onset to death interval"
                }
              ]
            },
            "valueString": "minutes"
          }
        ]
      }
    },
    {
      "fullUrl": "urn:uuid:d9236edd-9c84-41b1-b5a9-e35fd3bd8414",
      "resource": {
        "resourceType": "Observation",
        "id": "d9236edd-9c84-41b1-b5a9-e35fd3bd8414",
        "meta": {
          "profile": [
            "http://hl7.org/fhir/us/vrdr/StructureDefinition/vrdr-cause-of-death-part2"
          ]
        },
        "status": "final",
        "code": {
          "coding": [
            {
              "system": "http://loinc.org",
              "code": "69441-4",
              "display": "Other significant causes or conditions of death"
            }
          ]
        },
        "subject": {
          "reference": "urn:uuid:84738fac-c4d6-4f3b-aacb-88d45b08ea7f"
        },
        "performer": [
          {
            "reference": "urn:uuid:ac069540-a993-11ed-afa1-0242ac120002"
          }
        ],
        "valueCodeableConcept": {
          "text": "other cause"
        }
      }
    },
    {
      "fullUrl": "urn:uuid:5c8fd358-8d78-46e3-b01c-fd69ce9d52b2",
      "resource": {
        "resourceType": "Procedure",
        "id": "5c8fd358-8d78-46e3-b01c-fd69ce9d52b2",
        "meta": {
          "profile": [
            "http://hl7.org/fhir/us/vrdr/StructureDefinition/vrdr-death-certification"
          ]
        },
        "code": {
          "coding": [
            {
              "system": "http://snomed.info/sct",
              "code": "308646001"
            }
          ]
        },
        "subject": {
          "reference": "urn:uuid:84738fac-c4d6-4f3b-aacb-88d45b08ea7f"
        },
        "performer": [
          {
            "function": {
              "coding": [
                {
                  "system": "http://snomed.info/sct",
                  "code": "455381000124109",
                  "display": "Death certification by medical examiner or coroner (procedure)"
                }
              ]
            },
            "actor": {
              "reference": "urn:uuid:ac069540-a993-11ed-afa1-0242ac120002"
            }
          }
        ]
      }
    },
    {
      "fullUrl": "urn:uuid:3a580c3b-1fca-4689-8ff3-ee4914caff40",
      "resource": {
        "resourceType": "Observation",
        "id": "3a580c3b-1fca-4689-8ff3-ee4914caff40",
        "meta": {
          "profile": [
            "http://mortalityreporting.github.io/nvdrs-ig/StructureDefinition/vdrs-number-of-victims"
          ]
        },
        "code": {
          "coding": [
            {
              "system": "http://mortalityreporting.github.io/nvdrs-ig/CodeSystem/nvdrs-custom-code-system",
              "code": "number-of-victims",
              "display": "Number of Victims (Non Fatal)"
            }
          ]
        },
        "subject": {
          "reference": "urn:uuid:84738fac-c4d6-4f3b-aacb-88d45b08ea7f"
        },
        "valueInteger": 34
      }
    }
  ]
}