{
  "resourceType": "Bundle",
  "meta": {
    "profile": [
      "http://hl7.org/fhir/us/mdi/StructureDefinition/Bundle-document-mdi-to-edrs"
    ]
  },
  "identifier": {
    "system": "urn:ietf:rfc:3986",
    "value": "urn:uuid:933dde44f7664b03a20b6324f23986c0"
  },
  "type": "document",
  "timestamp": "2022-11-17T14:55:26.39611-05:00",
  "entry": [
    {
      "fullUrl": "Composition/8fe10e3e-7a78-44a3-bd70-ea8266ed0b65",
      "resource": {
        "resourceType": "Composition",
        "id": "8fe10e3e-7a78-44a3-bd70-ea8266ed0b65",
        "meta": {
          "profile": [
            "http://hl7.org/fhir/us/mdi/StructureDefinition/Composition-mdi-to-edrs"
          ]
        },
        "extension": [
          {
            "url": "http://hl7.org/fhir/us/mdi/StructureDefinition/Extension-tracking-number",
            "valueIdentifier": {
              "type": {
                "coding": [
                  {
                    "system": "http://hl7.org/fhir/us/mdi/CodeSystem/CodeSystem-mdi-codes",
                    "code": "mdi-case-number",
                    "display": "MDI Case Number"
                  }
                ]
              },
              "system": "urn:connectathon:test",
              "value": "2022-10"
            }
          }
        ],
        "identifier": {
          "value": "a03eab8c-11e8-4d0c-ad2a-b385395e27de"
        },
        "status": "final",
        "type": {
          "coding": [
            {
              "system": "http://loinc.org",
              "code": "86807-5",
              "display": "Death administrative information Document"
            }
          ]
        },
        "subject": {
          "reference": "Patient/15a9518e-97a8-43fe-855f-ef0955137fd5"
        },
        "date": "2022-02-20",
        "author": [
          {
            "reference": "Practitioner/81dd27b5-be5b-4d19-aff8-8a2c4782dfd4"
          }
        ],
        "title": "MDI to EDRS Composition",
        "attester": [
          {
            "mode": "official",
            "party": {
              "reference": "Practitioner/81dd27b5-be5b-4d19-aff8-8a2c4782dfd4"
            }
          }
        ],
        "section": [
          {
            "title": "Demographics Section",
            "code": {
              "coding": [
                {
                  "system": "http://hl7.org/fhir/us/mdi/CodeSystem/CodeSystem-mdi-codes",
                  "code": "demographics",
                  "display": "Demographics Section"
                }
              ]
            },
            "text": {
              "status": "additional",
              "div": "<div xmlns=\"http://www.w3.org/1999/xhtml\">\n  <p>No additional demographic information</p>\n  </div>"
            }
          },
          {
            "title": "Circumstances of the Death Section",
            "code": {
              "coding": [
                {
                  "system": "http://hl7.org/fhir/us/mdi/CodeSystem/CodeSystem-mdi-codes",
                  "code": "circumstances",
                  "display": "Circumstances of the Death Section"
                }
              ]
            },
            "entry": [
              {
                "reference": "Location/c5016306-8428-4421-9d26-764800ead8a1"
              },
              {
                "reference": "Observation/7a1026ca-a331-4185-b86b-d8b9dd969b45"
              },
              {
                "reference": "Observation/08e4a96e-96d3-4731-a9d1-4b3839db5c96"
              },
              {
                "reference": "Location/04911a33-5eb8-437b-8a0b-ad17973d3717"
              }
            ]
          },
          {
            "title": "Jurisdiction Section",
            "code": {
              "coding": [
                {
                  "system": "http://hl7.org/fhir/us/mdi/CodeSystem/CodeSystem-mdi-codes",
                  "code": "jurisdiction",
                  "display": "Jurisdiction Section"
                }
              ]
            },
            "entry": [
              {
                "reference": "Observation/ed87c6fe-6704-4c19-859b-41f0926c5df9"
              },
              {
                "reference": "Procedure/fa34cac8-1f33-487e-b926-e25b76b02278"
              }
            ]
          },
          {
            "title": "Cause and Manner of Death Section",
            "code": {
              "coding": [
                {
                  "system": "http://hl7.org/fhir/us/mdi/CodeSystem/CodeSystem-mdi-codes",
                  "code": "cause-manner",
                  "display": "Cause and Manner of Death Section"
                }
              ]
            },
            "entry": [
              {
                "reference": "Observation/7f9858c0-7b85-45bc-acec-03cb89244a43"
              },
              {
                "reference": "Observation/b74f453f-32ab-4abe-8925-29b24ed6bf51"
              },
              {
                "reference": "Observation/c396b516-08ee-429e-a583-0a0c6134c10e"
              },
              {
                "reference": "Observation/9648cd62-c0b2-496f-a51c-27cb44812d8a"
              },
              {
                "reference": "Observation/03c536f4-18cb-4338-b007-0d3c469612a7"
              }
            ]
          },
          {
            "title": "Medical History Section",
            "code": {
              "coding": [
                {
                  "system": "http://hl7.org/fhir/us/mdi/CodeSystem/CodeSystem-mdi-codes",
                  "code": "medical-history",
                  "display": "Medical History Section"
                }
              ]
            },
            "text": {
              "status": "generated",
              "div": "Medical History is not available"
            },
            "emptyReason": {
              "coding": [
                {
                  "system": "http://terminology.hl7.org/CodeSystem/list-empty-reason",
                  "code": "unavailable",
                  "display": "Unavailable"
                }
              ]
            }
          },
          {
            "title": "Exam/Autopsy Section",
            "code": {
              "coding": [
                {
                  "system": "http://hl7.org/fhir/us/mdi/CodeSystem/CodeSystem-mdi-codes",
                  "code": "exam-autopsy",
                  "display": "Exam/Autopsy Section"
                }
              ]
            },
            "entry": [
              {
                "reference": "Observation/d74e2ca2-f5d1-4fe0-a689-9158313576ae"
              }
            ]
          }
        ]
      }
    },
    {
      "fullUrl": "Patient/15a9518e-97a8-43fe-855f-ef0955137fd5",
      "resource": {
        "resourceType": "Patient",
        "id": "15a9518e-97a8-43fe-855f-ef0955137fd5",
        "meta": {
          "profile": [
            "http://hl7.org/fhir/us/core/StructureDefinition/us-core-patient"
          ]
        },
        "extension": [
          {
            "extension": [
              {
                "url": "ombCategory",
                "valueCoding": {
                  "system": "urn:oid:2.16.840.1.113883.6.238",
                  "code": "2106-3",
                  "display": "White"
                }
              },
              {
                "url": "detailed",
                "valueCoding": {
                  "system": "urn:oid:2.16.840.1.113883.6.238",
                  "code": "1010-8",
                  "display": "Apache"
                }
              },
              {
                "url": "text",
                "valueString": "Apache"
              }
            ],
            "url": "http://hl7.org/fhir/us/core/StructureDefinition/us-core-race"
          },
          {
            "extension": [
              {
                "url": "ombCategory",
                "valueCoding": {
                  "system": "urn:oid:2.16.840.1.113883.6.238",
                  "code": "2186-5",
                  "display": "Not Hispanic or Latino"
                }
              },
              {
                "url": "detailed",
                "valueCoding": {
                  "system": "urn:oid:2.16.840.1.113883.6.238",
                  "code": "2162-6",
                  "display": "Central American Indian"
                }
              },
              {
                "url": "text",
                "valueString": "Not Hispanic or Latino"
              }
            ],
            "url": "http://hl7.org/fhir/us/core/StructureDefinition/us-core-ethnicity"
          },
          {
            "url": "http://hl7.org/fhir/us/core/StructureDefinition/us-core-birthsex",
            "valueCode": "M"
          }
        ],
        "identifier": [
          {
            "use": "usual",
            "type": {
              "coding": [
                {
                  "system": "http://terminology.hl7.org/CodeSystem/v2-0203",
                  "code": "SB",
                  "display": "Social Beneficiary Identifier"
                }
              ]
            },
            "system": "http://hl7.org/fhir/sid/us-ssn",
            "value": "123456790"
          }
        ],
        "name": [
          {
            "family": "Adams",
            "given": [
              "Patch",
              "J"
            ]
          }
        ],
        "telecom": [
          {
            "system": "phone",
            "value": "404-123-0022",
            "use": "home"
          },
          {
            "system": "email",
            "value": "raven@mdi.org",
            "use": "work"
          }
        ],
        "gender": "female",
        "birthDate": "1965-05-02",
        "deceasedDateTime": "2014-03-02",
        "address": [
          {
            "use": "home",
            "type": "physical",
            "line": [
              "5100 Peachtree Street",
              "Bldg4-12"
            ],
            "city": "Atlanta",
            "state": "GA",
            "postalCode": "09090",
            "country": "USA"
          }
        ]
      }
    },
    {
      "fullUrl": "Practitioner/81dd27b5-be5b-4d19-aff8-8a2c4782dfd4",
      "resource": {
        "resourceType": "Practitioner",
        "id": "81dd27b5-be5b-4d19-aff8-8a2c4782dfd4",
        "meta": {
          "profile": [
            "http://hl7.org/fhir/us/core/StructureDefinition/us-core-practitioner"
          ]
        },
        "identifier": [
          {
            "system": "http://hl7.org/fhir/sid/us-npi",
            "value": "3333445555"
          }
        ],
        "name": [
          {
            "use": "official",
            "family": "Jones",
            "given": [
              "Sam"
            ],
            "prefix": [
              "Dr"
            ]
          }
        ],
        "telecom": [
          {
            "system": "phone",
            "value": "134-456-7890",
            "use": "work"
          }
        ],
        "address": [
          {
            "use": "work",
            "type": "physical",
            "line": [
              "567 Coda Blvd"
            ],
            "city": "Atlanta",
            "district": "Fulton County",
            "state": "GA",
            "postalCode": "30318",
            "country": "USA"
          }
        ]
      }
    },
    {
      "fullUrl": "Location/c5016306-8428-4421-9d26-764800ead8a1",
      "resource": {
        "resourceType": "Location",
        "id": "c5016306-8428-4421-9d26-764800ead8a1",
        "meta": {
          "profile": [
            "http://hl7.org/fhir/us/mdi/StructureDefinition/Location-death"
          ]
        },
        "identifier": [
          {
            "system": "http://www.acme.org/location",
            "value": "29"
          }
        ],
        "status": "active",
        "name": "Atlanta GA Death Location - Freeman",
        "type": [
          {
            "coding": [
              {
                "system": "http://hl7.org/fhir/us/mdi/CodeSystem/CodeSystem-mdi-codes",
                "code": "death",
                "display": "Death Location"
              }
            ]
          }
        ],
        "address": {
          "use": "home",
          "type": "physical",
          "line": [
            "400 Windstream Street"
          ],
          "city": "Atlanta",
          "district": "Fulton County",
          "state": "GA",
          "country": "USA"
        }
      }
    },
    {
      "fullUrl": "Observation/7a1026ca-a331-4185-b86b-d8b9dd969b45",
      "resource": {
        "resourceType": "Observation",
        "id": "7a1026ca-a331-4185-b86b-d8b9dd969b45",
        "meta": {
          "profile": [
            "http://hl7.org/fhir/us/mdi/StructureDefinition/Observation-tobacco-use-contributed-to-death"
          ]
        },
        "status": "final",
        "code": {
          "coding": [
            {
              "system": "http://loinc.org",
              "code": "69443-0",
              "display": "Did tobacco use contribute to death"
            }
          ]
        },
        "subject": {
          "reference": "Patient/15a9518e-97a8-43fe-855f-ef0955137fd5"
        },
        "valueCodeableConcept": {
          "coding": [
            {
              "system": "http://snomed.info/sct",
              "code": "373067005",
              "display": "No"
            }
          ]
        }
      }
    },
    {
      "fullUrl": "Observation/08e4a96e-96d3-4731-a9d1-4b3839db5c96",
      "resource": {
        "resourceType": "Observation",
        "id": "08e4a96e-96d3-4731-a9d1-4b3839db5c96",
        "meta": {
          "profile": [
            "http://hl7.org/fhir/us/mdi/StructureDefinition/Observation-decedent-pregnancy"
          ]
        },
        "status": "final",
        "code": {
          "coding": [
            {
              "system": "http://loinc.org",
              "code": "69442-2",
              "display": "Timing of recent pregnancy in relation to death"
            }
          ]
        },
        "subject": {
          "reference": "Patient/15a9518e-97a8-43fe-855f-ef0955137fd5"
        },
        "valueCodeableConcept": {
          "coding": [
            {
              "system": "http://terminology.hl7.org/CodeSystem/v3-NullFlavor",
              "code": "NA",
              "display": "Not applicable"
            }
          ]
        }
      }
    },
    {
      "fullUrl": "Location/04911a33-5eb8-437b-8a0b-ad17973d3717",
      "resource": {
        "resourceType": "Location",
        "id": "04911a33-5eb8-437b-8a0b-ad17973d3717",
        "meta": {
          "profile": [
            "http://hl7.org/fhir/us/mdi/StructureDefinition/Location-injury"
          ]
        },
        "name": "Atlanta GA Injury Location",
        "type": [
          {
            "coding": [
              {
                "system": "http://hl7.org/fhir/us/mdi/CodeSystem/CodeSystem-mdi-codes",
                "code": "injury",
                "display": "Injury Location"
              }
            ]
          }
        ],
        "address": {
          "use": "home",
          "type": "physical",
          "line": [
            "400 Windstream Street"
          ],
          "city": "Atlanta",
          "district": "Fulton County",
          "state": "GA",
          "postalCode": "30318",
          "country": "USA"
        }
      }
    },
    {
      "fullUrl": "Observation/ed87c6fe-6704-4c19-859b-41f0926c5df9",
      "resource": {
        "resourceType": "Observation",
        "id": "ed87c6fe-6704-4c19-859b-41f0926c5df9",
        "meta": {
          "profile": [
            "http://hl7.org/fhir/us/mdi/StructureDefinition/Observation-death-date"
          ]
        },
        "status": "final",
        "code": {
          "coding": [
            {
              "system": "http://loinc.org",
              "code": "81956-5",
              "display": "Date and time of death [TimeStamp]"
            }
          ]
        },
        "subject": {
          "reference": "Patient/15a9518e-97a8-43fe-855f-ef0955137fd5"
        },
        "effectiveDateTime": "2022-01-08T15:30:00-05:00",
        "valueDateTime": "2022-01-08T14:04:00-05:00",
        "method": {
          "coding": [
            {
              "system": "http://hl7.org/fhir/us/mdi/CodeSystem/CodeSystem-mdi-codes",
              "code": "exact",
              "display": "Exact"
            }
          ]
        },
        "component": [
          {
            "code": {
              "coding": [
                {
                  "system": "http://loinc.org",
                  "code": "80616-6",
                  "display": "Date and time pronounced dead [US Standard Certificate of Death]"
                }
              ]
            },
            "valueDateTime": "2022-01-08T15:30:00-05:00"
          },
          {
            "code": {
              "coding": [
                {
                  "system": "http://loinc.org",
                  "code": "58332-8",
                  "display": "Location of death"
                }
              ]
            },
            "valueCodeableConcept": {
              "coding": [
                {
                  "system": "http://snomed.info/sct",
                  "code": "63238001",
                  "display": "Dead on arrival at hospital"
                }
              ]
            }
          }
        ]
      }
    },
    {
      "fullUrl": "Procedure/fa34cac8-1f33-487e-b926-e25b76b02278",
      "resource": {
        "resourceType": "Procedure",
        "id": "fa34cac8-1f33-487e-b926-e25b76b02278",
        "meta": {
          "profile": [
            "http://hl7.org/fhir/us/mdi/StructureDefinition/Procedure-death-certification"
          ]
        },
        "status": "completed",
        "category": {
          "coding": [
            {
              "system": "http://snomed.info/sct",
              "code": "103693007",
              "display": "Diagnostic procedure"
            }
          ]
        },
        "code": {
          "coding": [
            {
              "system": "http://snomed.info/sct",
              "code": "308646001",
              "display": "Death certification"
            }
          ]
        },
        "subject": {
          "reference": "Patient/15a9518e-97a8-43fe-855f-ef0955137fd5"
        },
        "performedDateTime": "2022-01-08T15:30:00-05:00",
        "performer": [
          {
            "function": {
              "coding": [
                {
                  "system": "http://snomed.info/sct",
                  "code": "455381000124109",
                  "display": "Medical Examiner/Coroner-On the basis of examination, and/or investigation, in my opinion, death occurred at the time, date, and place, and due to the cause(s) and manner stated"
                }
              ]
            },
            "actor": {
              "reference": "Practitioner/81dd27b5-be5b-4d19-aff8-8a2c4782dfd4"
            }
          }
        ]
      }
    },
    {
      "fullUrl": "Observation/7f9858c0-7b85-45bc-acec-03cb89244a43",
      "resource": {
        "resourceType": "Observation",
        "id": "7f9858c0-7b85-45bc-acec-03cb89244a43",
        "meta": {
          "profile": [
            "http://hl7.org/fhir/us/mdi/StructureDefinition/Observation-cause-of-death-part1"
          ]
        },
        "status": "final",
        "code": {
          "coding": [
            {
              "system": "http://loinc.org",
              "code": "69453-9",
              "display": "Cause of death [US Standard Certificate of Death]"
            }
          ]
        },
        "subject": {
          "reference": "Patient/15a9518e-97a8-43fe-855f-ef0955137fd5"
        },
        "performer": [
          {
            "reference": "Practitioner/81dd27b5-be5b-4d19-aff8-8a2c4782dfd4"
          }
        ],
        "valueCodeableConcept": {
          "text": "Fentanyl toxicity"
        },
        "component": [
          {
            "code": {
              "coding": [
                {
                  "system": "http://hl7.org/fhir/us/mdi/CodeSystem/CodeSystem-local-component-codes",
                  "code": "lineNumber",
                  "display": "lineNumber"
                }
              ]
            },
            "valueInteger": 1
          },
          {
            "code": {
              "coding": [
                {
                  "system": "http://loinc.org",
                  "code": "69440-6",
                  "display": "Disease onset to death interval"
                }
              ]
            },
            "valueString": "minutes to hours"
          }
        ]
      }
    },
    {
      "fullUrl": "Observation/b74f453f-32ab-4abe-8925-29b24ed6bf51",
      "resource": {
        "resourceType": "Observation",
        "id": "b74f453f-32ab-4abe-8925-29b24ed6bf51",
        "meta": {
          "profile": [
            "http://hl7.org/fhir/us/mdi/StructureDefinition/Observation-cause-of-death-part1"
          ]
        },
        "status": "final",
        "code": {
          "coding": [
            {
              "system": "http://loinc.org",
              "code": "69453-9",
              "display": "Cause of death [US Standard Certificate of Death]"
            }
          ]
        },
        "subject": {
          "reference": "Patient/15a9518e-97a8-43fe-855f-ef0955137fd5"
        },
        "performer": [
          {
            "reference": "Practitioner/81dd27b5-be5b-4d19-aff8-8a2c4782dfd4"
          }
        ],
        "valueCodeableConcept": {
          "text": "Liver failure"
        },
        "component": [
          {
            "code": {
              "coding": [
                {
                  "system": "http://hl7.org/fhir/us/mdi/CodeSystem/CodeSystem-local-component-codes",
                  "code": "lineNumber",
                  "display": "lineNumber"
                }
              ]
            },
            "valueInteger": 2
          },
          {
            "code": {
              "coding": [
                {
                  "system": "http://loinc.org",
                  "code": "69440-6",
                  "display": "Disease onset to death interval"
                }
              ]
            },
            "valueString": "1 hour"
          }
        ]
      }
    },
    {
      "fullUrl": "Observation/c396b516-08ee-429e-a583-0a0c6134c10e",
      "resource": {
        "resourceType": "Observation",
        "id": "c396b516-08ee-429e-a583-0a0c6134c10e",
        "meta": {
          "profile": [
            "http://hl7.org/fhir/us/mdi/StructureDefinition/Observation-contributing-cause-of-death-part2"
          ]
        },
        "status": "final",
        "code": {
          "coding": [
            {
              "system": "http://loinc.org",
              "code": "69441-4",
              "display": "Other significant causes or conditions of death"
            }
          ]
        },
        "subject": {
          "reference": "Patient/15a9518e-97a8-43fe-855f-ef0955137fd5"
        },
        "performer": [
          {
            "reference": "Practitioner/81dd27b5-be5b-4d19-aff8-8a2c4782dfd4"
          }
        ],
        "valueCodeableConcept": {
          "text": "Hypertensive heart disease"
        }
      }
    },
    {
      "fullUrl": "Observation/9648cd62-c0b2-496f-a51c-27cb44812d8a",
      "resource": {
        "resourceType": "Observation",
        "id": "9648cd62-c0b2-496f-a51c-27cb44812d8a",
        "meta": {
          "profile": [
            "http://hl7.org/fhir/us/mdi/StructureDefinition/Observation-manner-of-death"
          ]
        },
        "status": "final",
        "code": {
          "coding": [
            {
              "system": "http://loinc.org",
              "code": "69449-7",
              "display": "Manner of death"
            }
          ]
        },
        "subject": {
          "reference": "Patient/15a9518e-97a8-43fe-855f-ef0955137fd5"
        },
        "performer": [
          {
            "reference": "Practitioner/81dd27b5-be5b-4d19-aff8-8a2c4782dfd4"
          }
        ],
        "valueCodeableConcept": {
          "coding": [
            {
              "system": "http://snomed.info/sct",
              "code": "7878000",
              "display": "Accidental Death"
            }
          ]
        }
      }
    },
    {
      "fullUrl": "Observation/03c536f4-18cb-4338-b007-0d3c469612a7",
      "resource": {
        "resourceType": "Observation",
        "id": "03c536f4-18cb-4338-b007-0d3c469612a7",
        "meta": {
          "profile": [
            "http://hl7.org/fhir/us/mdi/StructureDefinition/Observation-how-death-injury-occurred"
          ]
        },
        "status": "final",
        "code": {
          "coding": [
            {
              "system": "http://loinc.org",
              "code": "11374-6",
              "display": "Injury incident description Narrative"
            }
          ]
        },
        "subject": {
          "reference": "Patient/15a9518e-97a8-43fe-855f-ef0955137fd5"
        },
        "_effectiveDateTime": {
          "extension": [
            {
              "extension": [
                {
                  "url": "http://hl7.org/fhir/us/mdi/StructureDefinition/Extension-date-year",
                  "valueUnsignedInt": 2022
                },
                {
                  "url": "http://hl7.org/fhir/us/mdi/StructureDefinition/Extension-date-month",
                  "valueUnsignedInt": 2
                },
                {
                  "url": "http://hl7.org/fhir/us/mdi/StructureDefinition/Extension-date-day",
                  "valueUnsignedInt": 1
                },
                {
                  "url": "http://hl7.org/fhir/us/mdi/StructureDefinition/Extension-date-time",
                  "valueTime": "15:34:20"
                }
              ],
              "url": "http://hl7.org/fhir/us/mdi/StructureDefinition/Extension-partial-date-time"
            }
          ]
        },
        "performer": [
          {
            "reference": "Practitioner/81dd27b5-be5b-4d19-aff8-8a2c4782dfd4"
          }
        ],
        "valueCodeableConcept": {
          "text": "Ingested counterfeit medication"
        },
        "component": [
          {
            "code": {
              "coding": [
                {
                  "system": "http://loinc.org",
                  "code": "69450-5"
                }
              ]
            },
            "valueCodeableConcept": {
              "text": "Private House"
            }
          }
        ]
      }
    },
    {
      "fullUrl": "Observation/d74e2ca2-f5d1-4fe0-a689-9158313576ae",
      "resource": {
        "resourceType": "Observation",
        "id": "d74e2ca2-f5d1-4fe0-a689-9158313576ae",
        "meta": {
          "profile": [
            "http://hl7.org/fhir/us/mdi/StructureDefinition/Observation-autopsy-performed-indicator"
          ]
        },
        "status": "final",
        "code": {
          "coding": [
            {
              "system": "http://loinc.org",
              "code": "85699-7",
              "display": "Autopsy was performed"
            }
          ]
        },
        "subject": {
          "reference": "Patient/15a9518e-97a8-43fe-855f-ef0955137fd5"
        },
        "valueCodeableConcept": {
          "coding": [
            {
              "system": "http://terminology.hl7.org/CodeSystem/v2-0136",
              "code": "Y",
              "display": "Yes"
            }
          ]
        },
        "component": [
          {
            "code": {
              "coding": [
                {
                  "system": "http://loinc.org",
                  "code": "69436-4"
                }
              ]
            },
            "valueCodeableConcept": {
              "coding": [
                {
                  "system": "http://terminology.hl7.org/CodeSystem/v3-NullFlavor",
                  "code": "NA",
                  "display": "not applicable"
                }
              ]
            }
          }
        ]
      }
    }
  ]
}