{
  "resourceType": "Bundle",
  "meta": {
    "profile": [
      "http://hl7.org/fhir/us/mdi/StructureDefinition/Bundle-message-tox-to-mdi"
    ]
  },
  "identifier": {
    "system": "urn:ietf:rfc:3986",
    "value": "urn:uuid:683dde44f7664b03a20b6324f23986d9"
  },
  "type": "message",
  "entry": [
    {
      "fullUrl": "MessageHeader/917bbbf3-f50e-4afe-80df-01d92b34bc79",
      "resource": {
        "resourceType": "MessageHeader",
        "id": "917bbbf3-f50e-4afe-80df-01d92b34bc79",
        "meta": {
          "profile": [
            "http://hl7.org/fhir/us/mdi/StructureDefinition/MessageHeader-toxicology-to-mdi"
          ]
        },
        "eventCoding": {
          "system": "http://hl7.org/fhir/us/mdi/CodeSystem/CodeSystem-mdi-codes",
          "code": "tox-result-report",
          "display": "Toxicology Lab Results"
        },
        "source": {
          "name": "University of Florida Pathology Labs, Forensic Toxicology Laboratory",
          "software": "MS Access",
          "version": "1.2.3",
          "contact": {
            "system": "phone",
            "value": "+1 (555) 123 4567"
          },
          "endpoint": "http://uf.org/access/endpoint/1"
        },
        "focus": [
          {
            "reference": "DiagnosticReport/fac503f4-f2bf-4de2-952a-c8cbeaff753a"
          }
        ]
      }
    },
    {
      "fullUrl": "DiagnosticReport/fac503f4-f2bf-4de2-952a-c8cbeaff753a",
      "resource": {
        "resourceType": "DiagnosticReport",
        "id": "fac503f4-f2bf-4de2-952a-c8cbeaff753a",
        "meta": {
          "profile": [
            "http://hl7.org/fhir/us/mdi/StructureDefinition/DiagnosticReport-toxicology-to-mdi"
          ]
        },
        "extension": [
          {
            "url": "http://hl7.org/fhir/us/mdi/StructureDefinition/Extension-tracking-number",
            "valueIdentifier": {
              "type": {
                "coding": [
                  {
                    "system": "http://hl7.org/fhir/us/mdi/CodeSystem/CodeSystem-mdi-codes",
                    "code": "tox-lab-case-number",
                    "display": "Toxicology Laboratory Case Number"
                  }
                ]
              },
              "system": "http://uf-path-labs.org/fhir/lab-cases",
              "value": "R21-01578"
            }
          }
        ],
        "status": "final",
        "category": [
          {
            "coding": [
              {
                "system": "http://terminology.hl7.org/CodeSystem/v2-0074",
                "code": "LAB",
                "display": "Laboratory"
              }
            ]
          }
        ],
        "code": {
          "coding": [
            {
              "system": "http://loinc.org",
              "code": "81273-5",
              "display": "fentaNYL and Norfentanyl panel - Specimen"
            }
          ]
        },
        "subject": {
          "reference": "Patient/15a9518e-97a8-43fe-855f-ef0955137fd5"
        },
        "effectiveDateTime": "2021-12-03T11:00:00Z",
        "issued": "2022-01-05T11:00:00+00:00",
        "performer": [
          {
            "reference": "Practitioner/187a8437-748f-46c7-9014-a3d2886149c8"
          }
        ],
        "specimen": [
          {
            "reference": "Specimen/2ef13aa5-9344-49f6-acde-bcca26a4dcd8",
            "display": "Whole blood sample (specimen)"
          },
          {
            "reference": "Specimen/24626ee2-a9e0-4bd8-aee0-41daae2ebd0e",
            "display": "Urine specimen (specimen)"
          },
          {
            "reference": "Specimen/419330fa-770e-4ef7-b90e-8ecb4dfca6fe",
            "display": "Vitreous humor sample"
          },
          {
            "reference": "Specimen/ade55f13-27ef-47da-8f0d-f53ed96ee446",
            "display": "Bile specimen (specimen)"
          },
          {
            "reference": "Specimen/bc5b4ae3-df1f-4b50-8ef6-e78c49ed3ac1",
            "display": "Tissue specimen from liver (specimen)"
          },
          {
            "reference": "Specimen/3a487899-4601-463f-bd4f-8ca895f1ed00",
            "display": "Specimen from stomach (specimen)"
          }
        ],
        "result": [
          {
            "reference": "Observation/7243852e-f980-451d-98a3-23b9f9cd59ca",
            "display": "Ethanol [Mass/volume] in Blood by Gas chromatography"
          },
          {
            "reference": "Observation/2e927910-f617-4fd3-93bb-193685d027bc",
            "display": "Despropionylfentanyl [Mass/volume] in Serum or Plasma"
          },
          {
            "reference": "Observation/600c02c0-4ab0-4c6a-ae56-4776db86e0e7",
            "display": "Acetyl norfentanyl [Mass/volume] in Serum, Plasma or Blood by Confirmatory method"
          },
          {
            "reference": "Observation/ef3cb72a-af4f-4a76-a84b-0eeb35e7ecf0",
            "display": "fentaNYL [Mass/volume] in Blood by Confirmatory method"
          },
          {
            "reference": "Observation/d6ac7eab-8ddc-46ca-89f8-44d7523c9daf",
            "display": "Ethanol [Mass/volume] in Urine by Confirmatory method"
          },
          {
            "reference": "Observation/66b1a31f-abdc-4b0c-8db3-7f3da4d4fe75",
            "display": "Despropionylfentanyl [Mass/volume] in Serum or Plasma"
          },
          {
            "reference": "Observation/7fa414e3-9274-4276-906c-21618108ceb0",
            "display": "Acetyl fentanyl [Presence] in Urine by Confirmatory method"
          },
          {
            "reference": "Observation/0be57dbc-a7aa-4907-a571-be2b0bf056ab",
            "display": "fentaNYL [Presence] in Urine"
          },
          {
            "reference": "Observation/1fdaa8cf-8bef-4e94-a711-214716e2cbd2",
            "display": "Norfentanyl [Presence] in Urine"
          },
          {
            "reference": "Observation/581ada78-c649-4e6d-8ae2-be47cbb1714a",
            "display": "Ketamine [Presence] in Urine"
          },
          {
            "reference": "Observation/7ed6d9b2-79c7-476e-ab63-f38063adddb0",
            "display": "Ethanol [Mass/volume] in Vitreous fluid"
          }
        ]
      }
    },
    {
      "fullUrl": "Patient/15a9518e-97a8-43fe-855f-ef0955137fd5",
      "resource": {
        "resourceType": "Patient",
        "id": "15a9518e-97a8-43fe-855f-ef0955137fd5",
        "meta": {
          "profile": [
            "http://hl7.org/fhir/us/core/StructureDefinition/us-core-patient"
          ]
        },
        "extension": [
          {
            "extension": [
              {
                "url": "ombCategory",
                "valueCoding": {
                  "system": "urn:oid:2.16.840.1.113883.6.238",
                  "code": "2106-3",
                  "display": "White"
                }
              },
              {
                "url": "detailed",
                "valueCoding": {
                  "system": "urn:oid:2.16.840.1.113883.6.238",
                  "code": "1010-8",
                  "display": "Apache"
                }
              },
              {
                "url": "text",
                "valueString": "Apache"
              }
            ],
            "url": "http://hl7.org/fhir/us/core/StructureDefinition/us-core-race"
          },
          {
            "extension": [
              {
                "url": "ombCategory",
                "valueCoding": {
                  "system": "urn:oid:2.16.840.1.113883.6.238",
                  "code": "2186-5",
                  "display": "Not Hispanic or Latino"
                }
              },
              {
                "url": "detailed",
                "valueCoding": {
                  "system": "urn:oid:2.16.840.1.113883.6.238",
                  "code": "2162-6",
                  "display": "Central American Indian"
                }
              },
              {
                "url": "text",
                "valueString": "Not Hispanic or Latino"
              }
            ],
            "url": "http://hl7.org/fhir/us/core/StructureDefinition/us-core-ethnicity"
          },
          {
            "url": "http://hl7.org/fhir/us/core/StructureDefinition/us-core-birthsex",
            "valueCode": "M"
          }
        ],
        "identifier": [
          {
            "use": "usual",
            "type": {
              "coding": [
                {
                  "system": "http://terminology.hl7.org/CodeSystem/v2-0203",
                  "code": "SB",
                  "display": "Social Beneficiary Identifier"
                }
              ]
            },
            "system": "http://hl7.org/fhir/sid/us-ssn",
            "value": "123456790"
          }
        ],
        "name": [
          {
            "family": "Adams",
            "given": [
              "Patch",
              "J"
            ]
          }
        ],
        "telecom": [
          {
            "system": "phone",
            "value": "404-123-0022",
            "use": "home"
          },
          {
            "system": "email",
            "value": "raven@mdi.org",
            "use": "work"
          }
        ],
        "gender": "female",
        "birthDate": "1965-05-02",
        "deceasedDateTime": "2014-03-02",
        "address": [
          {
            "use": "home",
            "type": "physical",
            "line": [
              "5100 Peachtree Street",
              "Bldg4-12"
            ],
            "city": "Atlanta",
            "state": "GA",
            "postalCode": "09090",
            "country": "USA"
          }
        ]
      }
    },
    {
      "fullUrl": "Practitioner/187a8437-748f-46c7-9014-a3d2886149c8",
      "resource": {
        "resourceType": "Practitioner",
        "id": "187a8437-748f-46c7-9014-a3d2886149c8",
        "meta": {
          "profile": [
            "http://hl7.org/fhir/us/core/StructureDefinition/us-core-practitioner"
          ]
        },
        "identifier": [
          {
            "system": "http://hl7.org/fhir/sid/us-npi",
            "value": "555667777"
          }
        ],
        "name": [
          {
            "use": "official",
            "family": "Goldberger",
            "given": [
              "Bruce"
            ],
            "prefix": [
              "Dr"
            ]
          }
        ]
      }
    },
    {
      "fullUrl": "Specimen/2ef13aa5-9344-49f6-acde-bcca26a4dcd8",
      "resource": {
        "resourceType": "Specimen",
        "id": "2ef13aa5-9344-49f6-acde-bcca26a4dcd8",
        "meta": {
          "profile": [
            "http://hl7.org/fhir/us/mdi/StructureDefinition/Specimen-toxicology-lab"
          ]
        },
        "accessionIdentifier": {
          "system": "http://lab.acme.org/specimens/2021",
          "value": "X352356"
        },
        "status": "available",
        "type": {
          "text": "Whole blood sample (specimen)"
        },
        "subject": {
          "reference": "Patient/15a9518e-97a8-43fe-855f-ef0955137fd5"
        },
        "receivedTime": "2021-12-03T16:00:00Z",
        "collection": {
          "collectedDateTime": "2021-12-03T11:00:00Z",
          "bodySite": {
            "coding": [
              {
                "system": "http://snomed.info/sct",
                "code": "83419000",
                "display": "Femoral vein structure (body structure)"
              }
            ]
          }
        },
        "container": [
          {
            "description": "10mL GT tube",
            "type": {
              "coding": [
                {
                  "system": "http://snomed.info/sct",
                  "code": "702287009",
                  "display": "Non-evacuated blood collection tube, potassium oxalate/sodium fluoride (physical object)"
                }
              ],
              "text": "GT tube"
            },
            "specimenQuantity": {
              "value": 20,
              "unit": "ml"
            }
          }
        ]
      }
    },
    {
      "fullUrl": "Specimen/24626ee2-a9e0-4bd8-aee0-41daae2ebd0e",
      "resource": {
        "resourceType": "Specimen",
        "id": "24626ee2-a9e0-4bd8-aee0-41daae2ebd0e",
        "meta": {
          "profile": [
            "http://hl7.org/fhir/us/mdi/StructureDefinition/Specimen-toxicology-lab"
          ]
        },
        "accessionIdentifier": {
          "system": "http://lab.acme.org/specimens/2021",
          "value": "ZZZ352356"
        },
        "status": "available",
        "type": {
          "text": "Urine specimen (specimen)"
        },
        "subject": {
          "reference": "Patient/15a9518e-97a8-43fe-855f-ef0955137fd5"
        },
        "receivedTime": "2021-12-03T16:00:00Z",
        "collection": {
          "collectedDateTime": "2021-12-03T11:00:00Z",
          "bodySite": {
            "coding": [
              {
                "system": "http://snomed.info/sct",
                "code": "83419000",
                "display": "Femoral vein structure (body structure)"
              }
            ]
          }
        },
        "container": [
          {
            "description": "10mL RT tube",
            "specimenQuantity": {
              "value": 5,
              "unit": "ml"
            }
          }
        ]
      }
    },
    {
      "fullUrl": "Specimen/419330fa-770e-4ef7-b90e-8ecb4dfca6fe",
      "resource": {
        "resourceType": "Specimen",
        "id": "419330fa-770e-4ef7-b90e-8ecb4dfca6fe",
        "meta": {
          "profile": [
            "http://hl7.org/fhir/us/mdi/StructureDefinition/Specimen-toxicology-lab"
          ]
        },
        "accessionIdentifier": {
          "system": "http://lab.acme.org/specimens/2021",
          "value": "XXX352356"
        },
        "status": "available",
        "type": {
          "coding": [
            {
              "system": "http://snomed.info/sct",
              "code": "258438000",
              "display": "Vitreous humor sample"
            }
          ],
          "text": "Vitreous humor sample"
        },
        "subject": {
          "reference": "Patient/15a9518e-97a8-43fe-855f-ef0955137fd5"
        },
        "receivedTime": "2021-12-03T16:00:00Z",
        "collection": {
          "collectedDateTime": "2021-12-03T11:00:00Z",
          "bodySite": {
            "coding": [
              {
                "system": "http://snomed.info/sct",
                "code": "83419000",
                "display": "Femoral vein structure (body structure)"
              }
            ]
          }
        },
        "container": [
          {
            "description": "10mL RT tube",
            "specimenQuantity": {
              "value": 3,
              "unit": "ml"
            }
          }
        ]
      }
    },
    {
      "fullUrl": "Specimen/ade55f13-27ef-47da-8f0d-f53ed96ee446",
      "resource": {
        "resourceType": "Specimen",
        "id": "ade55f13-27ef-47da-8f0d-f53ed96ee446",
        "meta": {
          "profile": [
            "http://hl7.org/fhir/us/mdi/StructureDefinition/Specimen-toxicology-lab"
          ]
        },
        "accessionIdentifier": {
          "system": "http://lab.acme.org/specimens/2021",
          "value": "OO352356"
        },
        "status": "available",
        "type": {
          "text": "Bile specimen (specimen)"
        },
        "subject": {
          "reference": "Patient/15a9518e-97a8-43fe-855f-ef0955137fd5"
        },
        "receivedTime": "2021-12-03T16:00:00Z",
        "container": [
          {
            "description": "3mL sample of bile specimen",
            "specimenQuantity": {
              "value": 3,
              "unit": "ml"
            }
          }
        ]
      }
    },
    {
      "fullUrl": "Specimen/bc5b4ae3-df1f-4b50-8ef6-e78c49ed3ac1",
      "resource": {
        "resourceType": "Specimen",
        "id": "bc5b4ae3-df1f-4b50-8ef6-e78c49ed3ac1",
        "meta": {
          "profile": [
            "http://hl7.org/fhir/us/mdi/StructureDefinition/Specimen-toxicology-lab"
          ]
        },
        "accessionIdentifier": {
          "system": "http://lab.acme.org/specimens/2021",
          "value": "DD352356"
        },
        "status": "available",
        "type": {
          "text": "Tissue specimen from liver (specimen)"
        },
        "subject": {
          "reference": "Patient/15a9518e-97a8-43fe-855f-ef0955137fd5"
        },
        "receivedTime": "2021-12-03T16:00:00Z",
        "container": [
          {
            "description": "5mL sample of liver specimen",
            "specimenQuantity": {
              "value": 5,
              "unit": "ml"
            }
          }
        ]
      }
    },
    {
      "fullUrl": "Specimen/3a487899-4601-463f-bd4f-8ca895f1ed00",
      "resource": {
        "resourceType": "Specimen",
        "id": "3a487899-4601-463f-bd4f-8ca895f1ed00",
        "meta": {
          "profile": [
            "http://hl7.org/fhir/us/mdi/StructureDefinition/Specimen-toxicology-lab"
          ]
        },
        "accessionIdentifier": {
          "system": "http://lab.acme.org/specimens/2021",
          "value": "MM352356"
        },
        "status": "available",
        "type": {
          "coding": [
            {
              "system": "http://snomed.info/sct",
              "code": "258580003",
              "display": "Whole blood specimen"
            }
          ],
          "text": "Specimen from stomach (specimen)"
        },
        "subject": {
          "reference": "Patient/15a9518e-97a8-43fe-855f-ef0955137fd5"
        },
        "receivedTime": "2021-12-03T16:00:00Z",
        "collection": {
          "collectedDateTime": "2021-12-03T11:00:00Z",
          "bodySite": {
            "coding": [
              {
                "system": "http://snomed.info/sct",
                "code": "83419000",
                "display": "Femoral vein structure (body structure)"
              }
            ]
          }
        },
        "container": [
          {
            "description": "60mL sample of stomach contents specimen",
            "specimenQuantity": {
              "value": 60,
              "unit": "ml"
            }
          }
        ]
      }
    },
    {
      "fullUrl": "Observation/7243852e-f980-451d-98a3-23b9f9cd59ca",
      "resource": {
        "resourceType": "Observation",
        "id": "7243852e-f980-451d-98a3-23b9f9cd59ca",
        "meta": {
          "profile": [
            "http://hl7.org/fhir/us/mdi/StructureDefinition/Observation-toxicology-lab-result"
          ]
        },
        "status": "final",
        "category": [
          {
            "coding": [
              {
                "system": "http://terminology.hl7.org/CodeSystem/observation-category",
                "code": "laboratory",
                "display": "Laboratory"
              }
            ]
          }
        ],
        "code": {
          "coding": [
            {
              "system": "http://loinc.org",
              "code": "56478-1",
              "display": "Ethanol [Mass/volume] in Blood by Gas chromatography"
            }
          ],
          "text": "Ethanol [Mass/volume] in Blood by Gas chromatography"
        },
        "subject": {
          "reference": "Patient/15a9518e-97a8-43fe-855f-ef0955137fd5"
        },
        "effectiveDateTime": "2021-12-03",
        "valueString": "0.145 g/dL",
        "specimen": {
          "reference": "Specimen/2ef13aa5-9344-49f6-acde-bcca26a4dcd8"
        }
      }
    },
    {
      "fullUrl": "Observation/2e927910-f617-4fd3-93bb-193685d027bc",
      "resource": {
        "resourceType": "Observation",
        "id": "2e927910-f617-4fd3-93bb-193685d027bc",
        "meta": {
          "profile": [
            "http://hl7.org/fhir/us/mdi/StructureDefinition/Observation-toxicology-lab-result"
          ]
        },
        "status": "final",
        "category": [
          {
            "coding": [
              {
                "system": "http://terminology.hl7.org/CodeSystem/observation-category",
                "code": "laboratory",
                "display": "Laboratory"
              }
            ]
          }
        ],
        "code": {
          "coding": [
            {
              "system": "http://loinc.org",
              "code": "11072-6",
              "display": "Despropionylfentanyl [Mass/volume] in Serum or Plasma"
            }
          ],
          "text": "Despropionylfentanyl [Mass/volume] in Serum or Plasma"
        },
        "subject": {
          "reference": "Patient/15a9518e-97a8-43fe-855f-ef0955137fd5"
        },
        "effectiveDateTime": "2021-12-03",
        "valueString": "true",
        "specimen": {
          "reference": "Specimen/2ef13aa5-9344-49f6-acde-bcca26a4dcd8"
        }
      }
    },
    {
      "fullUrl": "Observation/600c02c0-4ab0-4c6a-ae56-4776db86e0e7",
      "resource": {
        "resourceType": "Observation",
        "id": "600c02c0-4ab0-4c6a-ae56-4776db86e0e7",
        "meta": {
          "profile": [
            "http://hl7.org/fhir/us/mdi/StructureDefinition/Observation-toxicology-lab-result"
          ]
        },
        "status": "final",
        "category": [
          {
            "coding": [
              {
                "system": "http://terminology.hl7.org/CodeSystem/observation-category",
                "code": "laboratory",
                "display": "Laboratory"
              }
            ]
          }
        ],
        "code": {
          "coding": [
            {
              "system": "http://loinc.org",
              "code": "86223-5",
              "display": "Acetyl norfentanyl [Mass/volume] in Serum, Plasma or Blood by Confirmatory method"
            }
          ],
          "text": "Acetyl norfentanyl [Mass/volume] in Serum, Plasma or Blood by Confirmatory method"
        },
        "subject": {
          "reference": "Patient/15a9518e-97a8-43fe-855f-ef0955137fd5"
        },
        "effectiveDateTime": "2021-12-03",
        "valueString": "2 ng/mL",
        "specimen": {
          "reference": "Specimen/2ef13aa5-9344-49f6-acde-bcca26a4dcd8"
        }
      }
    },
    {
      "fullUrl": "Observation/ef3cb72a-af4f-4a76-a84b-0eeb35e7ecf0",
      "resource": {
        "resourceType": "Observation",
        "id": "ef3cb72a-af4f-4a76-a84b-0eeb35e7ecf0",
        "meta": {
          "profile": [
            "http://hl7.org/fhir/us/mdi/StructureDefinition/Observation-toxicology-lab-result"
          ]
        },
        "status": "final",
        "category": [
          {
            "coding": [
              {
                "system": "http://terminology.hl7.org/CodeSystem/observation-category",
                "code": "laboratory",
                "display": "Laboratory"
              }
            ]
          }
        ],
        "code": {
          "coding": [
            {
              "system": "http://loinc.org",
              "code": "73938-3",
              "display": "fentaNYL [Mass/volume] in Blood by Confirmatory method"
            }
          ],
          "text": "fentaNYL [Mass/volume] in Blood by Confirmatory method"
        },
        "subject": {
          "reference": "Patient/15a9518e-97a8-43fe-855f-ef0955137fd5"
        },
        "effectiveDateTime": "2021-12-03",
        "valueString": "23 ng/mL",
        "specimen": {
          "reference": "Specimen/2ef13aa5-9344-49f6-acde-bcca26a4dcd8"
        }
      }
    },
    {
      "fullUrl": "Observation/d6ac7eab-8ddc-46ca-89f8-44d7523c9daf",
      "resource": {
        "resourceType": "Observation",
        "id": "d6ac7eab-8ddc-46ca-89f8-44d7523c9daf",
        "meta": {
          "profile": [
            "http://hl7.org/fhir/us/mdi/StructureDefinition/Observation-toxicology-lab-result"
          ]
        },
        "status": "final",
        "category": [
          {
            "coding": [
              {
                "system": "http://terminology.hl7.org/CodeSystem/observation-category",
                "code": "laboratory",
                "display": "Laboratory"
              }
            ]
          }
        ],
        "code": {
          "coding": [
            {
              "system": "http://loinc.org",
              "code": "46983-3",
              "display": "Ethanol [Mass/volume] in Urine by Confirmatory method"
            }
          ],
          "text": "Ethanol [Mass/volume] in Urine by Confirmatory method"
        },
        "subject": {
          "reference": "Patient/15a9518e-97a8-43fe-855f-ef0955137fd5"
        },
        "effectiveDateTime": "2021-12-03",
        "valueString": "0.16 g/dL",
        "specimen": {
          "reference": "Specimen/24626ee2-a9e0-4bd8-aee0-41daae2ebd0e"
        }
      }
    },
    {
      "fullUrl": "Observation/66b1a31f-abdc-4b0c-8db3-7f3da4d4fe75",
      "resource": {
        "resourceType": "Observation",
        "id": "66b1a31f-abdc-4b0c-8db3-7f3da4d4fe75",
        "meta": {
          "profile": [
            "http://hl7.org/fhir/us/mdi/StructureDefinition/Observation-toxicology-lab-result"
          ]
        },
        "status": "final",
        "category": [
          {
            "coding": [
              {
                "system": "http://terminology.hl7.org/CodeSystem/observation-category",
                "code": "laboratory",
                "display": "Laboratory"
              }
            ]
          }
        ],
        "code": {
          "coding": [
            {
              "system": "http://loinc.org",
              "code": "11072-6",
              "display": "Despropionylfentanyl [Mass/volume] in Serum or Plasma"
            }
          ],
          "text": "Despropionylfentanyl [Mass/volume] in Serum or Plasma"
        },
        "subject": {
          "reference": "Patient/15a9518e-97a8-43fe-855f-ef0955137fd5"
        },
        "effectiveDateTime": "2021-12-03",
        "valueString": "true",
        "specimen": {
          "reference": "Specimen/24626ee2-a9e0-4bd8-aee0-41daae2ebd0e"
        }
      }
    },
    {
      "fullUrl": "Observation/7fa414e3-9274-4276-906c-21618108ceb0",
      "resource": {
        "resourceType": "Observation",
        "id": "7fa414e3-9274-4276-906c-21618108ceb0",
        "meta": {
          "profile": [
            "http://hl7.org/fhir/us/mdi/StructureDefinition/Observation-toxicology-lab-result"
          ]
        },
        "status": "final",
        "category": [
          {
            "coding": [
              {
                "system": "http://terminology.hl7.org/CodeSystem/observation-category",
                "code": "laboratory",
                "display": "Laboratory"
              }
            ]
          }
        ],
        "code": {
          "text": "Acetyl fentanyl [Presence] in Urine by Confirmatory method"
        },
        "subject": {
          "reference": "Patient/15a9518e-97a8-43fe-855f-ef0955137fd5"
        },
        "effectiveDateTime": "2021-12-03",
        "valueString": "true",
        "specimen": {
          "reference": "Specimen/24626ee2-a9e0-4bd8-aee0-41daae2ebd0e"
        }
      }
    },
    {
      "fullUrl": "Observation/0be57dbc-a7aa-4907-a571-be2b0bf056ab",
      "resource": {
        "resourceType": "Observation",
        "id": "0be57dbc-a7aa-4907-a571-be2b0bf056ab",
        "meta": {
          "profile": [
            "http://hl7.org/fhir/us/mdi/StructureDefinition/Observation-toxicology-lab-result"
          ]
        },
        "status": "final",
        "category": [
          {
            "coding": [
              {
                "system": "http://terminology.hl7.org/CodeSystem/observation-category",
                "code": "laboratory",
                "display": "Laboratory"
              }
            ]
          }
        ],
        "code": {
          "coding": [
            {
              "system": "http://loinc.org",
              "code": "11235-9",
              "display": "fentaNYL [Presence] in Urine"
            }
          ],
          "text": "fentaNYL [Presence] in Urine"
        },
        "subject": {
          "reference": "Patient/15a9518e-97a8-43fe-855f-ef0955137fd5"
        },
        "effectiveDateTime": "2021-12-03",
        "valueString": "true",
        "specimen": {
          "reference": "Specimen/24626ee2-a9e0-4bd8-aee0-41daae2ebd0e"
        }
      }
    },
    {
      "fullUrl": "Observation/1fdaa8cf-8bef-4e94-a711-214716e2cbd2",
      "resource": {
        "resourceType": "Observation",
        "id": "1fdaa8cf-8bef-4e94-a711-214716e2cbd2",
        "meta": {
          "profile": [
            "http://hl7.org/fhir/us/mdi/StructureDefinition/Observation-toxicology-lab-result"
          ]
        },
        "status": "final",
        "category": [
          {
            "coding": [
              {
                "system": "http://terminology.hl7.org/CodeSystem/observation-category",
                "code": "laboratory",
                "display": "Laboratory"
              }
            ]
          }
        ],
        "code": {
          "coding": [
            {
              "system": "http://loinc.org",
              "code": "43199-9",
              "display": "Norfentanyl [Presence] in Urine"
            }
          ],
          "text": "Norfentanyl [Presence] in Urine"
        },
        "subject": {
          "reference": "Patient/15a9518e-97a8-43fe-855f-ef0955137fd5"
        },
        "effectiveDateTime": "2021-12-03",
        "valueString": "true",
        "specimen": {
          "reference": "Specimen/24626ee2-a9e0-4bd8-aee0-41daae2ebd0e"
        }
      }
    },
    {
      "fullUrl": "Observation/581ada78-c649-4e6d-8ae2-be47cbb1714a",
      "resource": {
        "resourceType": "Observation",
        "id": "581ada78-c649-4e6d-8ae2-be47cbb1714a",
        "meta": {
          "profile": [
            "http://hl7.org/fhir/us/mdi/StructureDefinition/Observation-toxicology-lab-result"
          ]
        },
        "status": "final",
        "category": [
          {
            "coding": [
              {
                "system": "http://terminology.hl7.org/CodeSystem/observation-category",
                "code": "laboratory",
                "display": "Laboratory"
              }
            ]
          }
        ],
        "code": {
          "coding": [
            {
              "system": "http://loinc.org",
              "code": "12327-3",
              "display": "Ketamine [Presence] in Urine"
            }
          ],
          "text": "Ketamine [Presence] in Urine"
        },
        "subject": {
          "reference": "Patient/15a9518e-97a8-43fe-855f-ef0955137fd5"
        },
        "effectiveDateTime": "2021-12-03",
        "valueString": "true",
        "specimen": {
          "reference": "Specimen/24626ee2-a9e0-4bd8-aee0-41daae2ebd0e"
        }
      }
    },
    {
      "fullUrl": "Observation/7ed6d9b2-79c7-476e-ab63-f38063adddb0",
      "resource": {
        "resourceType": "Observation",
        "id": "7ed6d9b2-79c7-476e-ab63-f38063adddb0",
        "meta": {
          "profile": [
            "http://hl7.org/fhir/us/mdi/StructureDefinition/Observation-toxicology-lab-result"
          ]
        },
        "status": "final",
        "category": [
          {
            "coding": [
              {
                "system": "http://terminology.hl7.org/CodeSystem/observation-category",
                "code": "laboratory",
                "display": "Laboratory"
              }
            ]
          }
        ],
        "code": {
          "coding": [
            {
              "system": "http://loinc.org",
              "code": "12465-1",
              "display": "Ethanol [Mass/volume] in Vitreous fluid"
            }
          ],
          "text": "Ethanol [Mass/volume] in Vitreous fluid"
        },
        "subject": {
          "reference": "Patient/15a9518e-97a8-43fe-855f-ef0955137fd5"
        },
        "effectiveDateTime": "2021-12-03",
        "valueString": "0.133 g/dL",
        "specimen": {
          "reference": "Specimen/419330fa-770e-4ef7-b90e-8ecb4dfca6fe"
        }
      }
    }
  ]
}