{
  "resourceType": "Bundle",
  "id": "011ae382-1168-43c4-98f8-48410f3fd743",
  "meta": {
    "profile": [
      "http://hl7.org/fhir/us/vrdr/StructureDefinition/vrdr-death-certificate-document"
    ]
  },
  "identifier": {
    "extension": [
      {
        "url": "http://hl7.org/fhir/us/vrdr/StructureDefinition/CertificateNumber",
        "valueString": "1"
      },
      {
        "url": "http://hl7.org/fhir/us/vrdr/StructureDefinition/AuxiliaryStateIdentifier1",
        "valueString": "000000000042"
      }
    ],
    "system": "http://nchs.cdc.gov/vrdr_id",
    "value": "2018MA000001"
  },
  "type": "document",
  "timestamp": "2022-09-23T14:42:21.908096-04:00",
  "entry": [
    {
      "fullUrl": "urn:uuid:464aca07-0b45-4834-9881-7ff41d24a1af",
      "resource": {
        "resourceType": "Composition",
        "id": "464aca07-0b45-4834-9881-7ff41d24a1af",
        "meta": {
          "profile": [
            "http://hl7.org/fhir/us/vrdr/StructureDefinition/vrdr-death-certificate"
          ]
        },
        "status": "final",
        "type": {
          "coding": [
            {
              "system": "http://loinc.org",
              "code": "86807-5",
              "display": "Death administrative information Document"
            }
          ]
        },
        "subject": {
          "reference": "urn:uuid:c02e8cff-33d7-4ec1-8741-ca3d8f349cd8"
        },
        "date": "2019-02-01T16:47:04-05:00",
        "author": [
          {
            "reference": "urn:uuid:9a89f593-cda1-4ab1-abf9-2e87751c57fc"
          }
        ],
        "title": "Death Certificate",
        "attester": [
          {
            "mode": "legal",
            "time": "2019-01-29T16:48:06-05:00",
            "party": {
              "reference": "urn:uuid:9a89f593-cda1-4ab1-abf9-2e87751c57fc"
            }
          }
        ],
        "event": [
          {
            "code": [
              {
                "coding": [
                  {
                    "system": "http://snomed.info/sct",
                    "code": "103693007",
                    "display": "Diagnostic procedure (procedure)"
                  }
                ]
              }
            ],
            "detail": [
              {
                "reference": "urn:uuid:b40df0ec-12d2-4b90-8111-45e20536a17a"
              }
            ]
          }
        ],
        "section": [
          {
            "code": {
              "coding": [
                {
                  "system": "http://hl7.org/fhir/us/vrdr/CodeSystem/vrdr-document-section-cs",
                  "code": "DecedentDemographics"
                }
              ]
            },
            "entry": [
              {
                "reference": "urn:uuid:c02e8cff-33d7-4ec1-8741-ca3d8f349cd8"
              },
              {
                "reference": "urn:uuid:1b2f3bdf-ae1b-47bb-af68-cd8fddd5cbe0"
              },
              {
                "reference": "urn:uuid:e2cd2305-dbf6-48c9-997d-dadeb87e5bfe"
              },
              {
                "reference": "urn:uuid:df8a70e1-daf0-4e9b-836f-e19e2a6984c1"
              },
              {
                "reference": "urn:uuid:9be44637-ec2b-4b07-a35a-af49eb6a6a46"
              },
              {
                "reference": "urn:uuid:b9b9f5f0-fb8c-4cc3-be6c-32b815917b13"
              },
              {
                "reference": "urn:uuid:aba14157-bcb3-4342-a89e-bc823ec2c8a4"
              },
              {
                "reference": "urn:uuid:be825b21-9c07-4011-9abc-d4edb0384b88"
              },
              {
                "reference": "urn:uuid:bf762ca7-4544-4fe3-8a1a-c7b000cef5bb"
              }
            ]
          },
          {
            "code": {
              "coding": [
                {
                  "system": "http://hl7.org/fhir/us/vrdr/CodeSystem/vrdr-document-section-cs",
                  "code": "DeathCertification"
                }
              ]
            },
            "entry": [
              {
                "reference": "urn:uuid:9a89f593-cda1-4ab1-abf9-2e87751c57fc"
              },
              {
                "reference": "urn:uuid:b40df0ec-12d2-4b90-8111-45e20536a17a"
              },
              {
                "reference": "urn:uuid:44084694-215b-483a-954b-4ff64e89f9b0"
              },
              {
                "reference": "urn:uuid:59011490-f39b-4697-8f16-8663083635c6"
              },
              {
                "reference": "urn:uuid:4ca9bc9e-a915-4633-874b-cc801324a7a5"
              },
              {
                "reference": "urn:uuid:f419773b-8175-4720-8785-2ef538bb8e74"
              },
              {
                "reference": "urn:uuid:d8610e8c-d96e-46f6-b22d-afeb98b67b6a"
              },
              {
                "reference": "urn:uuid:a4c98b70-5d6f-4cb4-918d-a3642f483a62"
              }
            ]
          },
          {
            "code": {
              "coding": [
                {
                  "system": "http://hl7.org/fhir/us/vrdr/CodeSystem/vrdr-document-section-cs",
                  "code": "DecedentDisposition"
                }
              ]
            },
            "entry": [
              {
                "reference": "urn:uuid:a0a15317-88bb-4386-834b-1418063dacab"
              },
              {
                "reference": "urn:uuid:ae73645f-f085-44e9-a5d6-1b7754e1f958"
              },
              {
                "reference": "urn:uuid:2f9ac268-9a27-4de8-bf4c-2781b0d0b26a"
              }
            ]
          },
          {
            "code": {
              "coding": [
                {
                  "system": "http://hl7.org/fhir/us/vrdr/CodeSystem/vrdr-document-section-cs",
                  "code": "DeathInvestigation"
                }
              ]
            },
            "entry": [
              {
                "reference": "urn:uuid:f924c15a-c6fa-40f3-9a00-85a52780d364"
              },
              {
                "reference": "urn:uuid:a0810512-f48d-46b0-81af-43f29b25819f"
              },
              {
                "reference": "urn:uuid:ff5822a4-700e-4c3c-8206-6e334a9fb9fa"
              },
              {
                "reference": "urn:uuid:ea564011-4bbf-4471-aa3f-be8d41a142bf"
              },
              {
                "reference": "urn:uuid:97f10110-3c2a-4078-8732-dd0352ec4ba2"
              },
              {
                "reference": "urn:uuid:9bbdb48e-916f-43c7-873b-77c4574cef09"
              },
              {
                "reference": "urn:uuid:cdad5eba-a083-4331-b5a1-db7f042bab24"
              },
              {
                "reference": "urn:uuid:e3786e88-29da-4b91-8908-092067470f4d"
              }
            ]
          }
        ]
      }
    },
    {
      "fullUrl": "urn:uuid:c02e8cff-33d7-4ec1-8741-ca3d8f349cd8",
      "resource": {
        "resourceType": "Patient",
        "id": "c02e8cff-33d7-4ec1-8741-ca3d8f349cd8",
        "meta": {
          "profile": [
            "http://hl7.org/fhir/us/vrdr/StructureDefinition/vrdr-decedent"
          ]
        },
        "extension": [
          {
            "url": "http://hl7.org/fhir/us/vrdr/StructureDefinition/NVSS-SexAtDeath",
            "valueCodeableConcept": {
              "coding": [
                {
                  "system": "http://hl7.org/fhir/administrative-gender",
                  "code": "male",
                  "display": "Male"
                }
              ]
            }
          }
        ],
        "identifier": [
          {
            "type": {
              "coding": [
                {
                  "system": "http://terminology.hl7.org/CodeSystem/v2-0203",
                  "code": "SB",
                  "display": "Social Beneficiary Identifier"
                }
              ]
            },
            "system": "http://hl7.org/fhir/sid/us-ssn",
            "value": "123456789"
          }
        ],
        "name": [
          {
            "use": "official",
            "family": "Last",
            "given": [
              "Example",
              "Something",
              "Middle"
            ],
            "suffix": [
              "Jr."
            ]
          }
        ],
        "_birthDate": {
          "extension": [
            {
              "extension": [
                {
                  "url": "http://hl7.org/fhir/us/vrdr/StructureDefinition/Date-Year",
                  "valueUnsignedInt": 1940
                },
                {
                  "url": "http://hl7.org/fhir/us/vrdr/StructureDefinition/Date-Month",
                  "valueUnsignedInt": 2
                },
                {
                  "url": "http://hl7.org/fhir/us/vrdr/StructureDefinition/Date-Day",
                  "valueUnsignedInt": 19
                }
              ],
              "url": "http://hl7.org/fhir/us/vrdr/StructureDefinition/PartialDate"
            }
          ]
        },
        "address": [
          {
            "extension": [
              {
                "url": "http://hl7.org/fhir/us/vrdr/StructureDefinition/WithinCityLimitsIndicator",
                "valueCoding": {
                  "system": "http://terminology.hl7.org/CodeSystem/v2-0136",
                  "code": "N",
                  "display": "No"
                }
              }
            ],
            "line": [
              "101 Example Street",
              "Line 2"
            ],
            "city": "Bedford",
            "district": "Middlesex",
            "state": "MA",
            "postalCode": "01730",
            "country": "US"
          }
        ],
        "maritalStatus": {
          "coding": [
            {
              "system": "http://terminology.hl7.org/CodeSystem/v3-MaritalStatus",
              "code": "S",
              "display": "Never Married"
            }
          ]
        }
      }
    },
    {
      "fullUrl": "urn:uuid:9a89f593-cda1-4ab1-abf9-2e87751c57fc",
      "resource": {
        "resourceType": "Practitioner",
        "id": "9a89f593-cda1-4ab1-abf9-2e87751c57fc",
        "meta": {
          "profile": [
            "http://hl7.org/fhir/us/vrdr/StructureDefinition/vrdr-certifier"
          ]
        },
        "identifier": [
          {
            "system": "http://hl7.org/fhir/sid/us-npi",
            "value": "1234567890"
          }
        ],
        "name": [
          {
            "use": "official",
            "family": "Last",
            "given": [
              "Doctor",
              "Middle"
            ],
            "suffix": [
              "Jr."
            ]
          }
        ],
        "address": [
          {
            "line": [
              "11 Example Street",
              "Line 2"
            ],
            "city": "Bedford",
            "district": "Middlesex",
            "state": "MA",
            "postalCode": "01730",
            "country": "US"
          }
        ]
      }
    },
    {
      "fullUrl": "urn:uuid:b40df0ec-12d2-4b90-8111-45e20536a17a",
      "resource": {
        "resourceType": "Procedure",
        "id": "b40df0ec-12d2-4b90-8111-45e20536a17a",
        "meta": {
          "profile": [
            "http://hl7.org/fhir/us/vrdr/StructureDefinition/vrdr-death-certification"
          ]
        },
        "status": "completed",
        "category": {
          "coding": [
            {
              "system": "http://snomed.info/sct",
              "code": "103693007",
              "display": "Diagnostic procedure"
            }
          ]
        },
        "code": {
          "coding": [
            {
              "system": "http://snomed.info/sct",
              "code": "308646001",
              "display": "Death certification"
            }
          ]
        },
        "subject": {
          "reference": "urn:uuid:c02e8cff-33d7-4ec1-8741-ca3d8f349cd8"
        },
        "performedDateTime": "2019-01-29T16:48:06-05:00",
        "performer": [
          {
            "function": {
              "coding": [
                {
                  "system": "http://snomed.info/sct",
                  "code": "434641000124105",
                  "display": "Physician"
                }
              ]
            },
            "actor": {
              "reference": "urn:uuid:9a89f593-cda1-4ab1-abf9-2e87751c57fc"
            }
          }
        ]
      }
    },
    {
      "fullUrl": "urn:uuid:44084694-215b-483a-954b-4ff64e89f9b0",
      "resource": {
        "resourceType": "Observation",
        "id": "44084694-215b-483a-954b-4ff64e89f9b0",
        "meta": {
          "profile": [
            "http://hl7.org/fhir/us/vrdr/StructureDefinition/vrdr-manner-of-death"
          ]
        },
        "status": "final",
        "code": {
          "coding": [
            {
              "system": "http://loinc.org",
              "code": "69449-7",
              "display": "Manner of death"
            }
          ]
        },
        "subject": {
          "reference": "urn:uuid:c02e8cff-33d7-4ec1-8741-ca3d8f349cd8"
        },
        "performer": [
          {
            "reference": "urn:uuid:9a89f593-cda1-4ab1-abf9-2e87751c57fc"
          }
        ],
        "valueCodeableConcept": {
          "coding": [
            {
              "system": "http://snomed.info/sct",
              "code": "7878000",
              "display": "Accidental death"
            }
          ]
        }
      }
    },
    {
      "fullUrl": "urn:uuid:59011490-f39b-4697-8f16-8663083635c6",
      "resource": {
        "resourceType": "Observation",
        "id": "59011490-f39b-4697-8f16-8663083635c6",
        "meta": {
          "profile": [
            "http://hl7.org/fhir/us/vrdr/StructureDefinition/vrdr-cause-of-death-part2"
          ]
        },
        "status": "final",
        "code": {
          "coding": [
            {
              "system": "http://loinc.org",
              "code": "69441-4",
              "display": "Other significant causes or conditions of death"
            }
          ]
        },
        "subject": {
          "reference": "urn:uuid:c02e8cff-33d7-4ec1-8741-ca3d8f349cd8"
        },
        "performer": [
          {
            "reference": "urn:uuid:9a89f593-cda1-4ab1-abf9-2e87751c57fc"
          }
        ],
        "valueCodeableConcept": {
          "text": "Example Contributing Conditions"
        }
      }
    },
    {
      "fullUrl": "urn:uuid:4ca9bc9e-a915-4633-874b-cc801324a7a5",
      "resource": {
        "resourceType": "Observation",
        "id": "4ca9bc9e-a915-4633-874b-cc801324a7a5",
        "meta": {
          "profile": [
            "http://hl7.org/fhir/us/vrdr/StructureDefinition/vrdr-cause-of-death-part1"
          ]
        },
        "status": "final",
        "code": {
          "coding": [
            {
              "system": "http://loinc.org",
              "code": "69453-9",
              "display": "Cause of death [US Standard Certificate of Death]"
            }
          ]
        },
        "subject": {
          "reference": "urn:uuid:c02e8cff-33d7-4ec1-8741-ca3d8f349cd8"
        },
        "performer": [
          {
            "reference": "urn:uuid:9a89f593-cda1-4ab1-abf9-2e87751c57fc"
          }
        ],
        "valueCodeableConcept": {
          "text": "Rupture of myocardium"
        },
        "component": [
          {
            "code": {
              "coding": [
                {
                  "system": "http://hl7.org/fhir/us/vrdr/CodeSystem/vrdr-component-cs",
                  "code": "lineNumber",
                  "display": "line number"
                }
              ]
            },
            "valueInteger": 1
          },
          {
            "code": {
              "coding": [
                {
                  "system": "http://loinc.org",
                  "code": "69440-6",
                  "display": "Disease onset to death interval"
                }
              ]
            },
            "valueString": "minutes"
          }
        ]
      }
    },
    {
      "fullUrl": "urn:uuid:f419773b-8175-4720-8785-2ef538bb8e74",
      "resource": {
        "resourceType": "Observation",
        "id": "f419773b-8175-4720-8785-2ef538bb8e74",
        "meta": {
          "profile": [
            "http://hl7.org/fhir/us/vrdr/StructureDefinition/vrdr-cause-of-death-part1"
          ]
        },
        "status": "final",
        "code": {
          "coding": [
            {
              "system": "http://loinc.org",
              "code": "69453-9",
              "display": "Cause of death [US Standard Certificate of Death]"
            }
          ]
        },
        "subject": {
          "reference": "urn:uuid:c02e8cff-33d7-4ec1-8741-ca3d8f349cd8"
        },
        "performer": [
          {
            "reference": "urn:uuid:9a89f593-cda1-4ab1-abf9-2e87751c57fc"
          }
        ],
        "valueCodeableConcept": {
          "text": "Acute myocardial infarction"
        },
        "component": [
          {
            "code": {
              "coding": [
                {
                  "system": "http://hl7.org/fhir/us/vrdr/CodeSystem/vrdr-component-cs",
                  "code": "lineNumber",
                  "display": "line number"
                }
              ]
            },
            "valueInteger": 2
          },
          {
            "code": {
              "coding": [
                {
                  "system": "http://loinc.org",
                  "code": "69440-6",
                  "display": "Disease onset to death interval"
                }
              ]
            },
            "valueString": "6 days"
          }
        ]
      }
    },
    {
      "fullUrl": "urn:uuid:d8610e8c-d96e-46f6-b22d-afeb98b67b6a",
      "resource": {
        "resourceType": "Observation",
        "id": "d8610e8c-d96e-46f6-b22d-afeb98b67b6a",
        "meta": {
          "profile": [
            "http://hl7.org/fhir/us/vrdr/StructureDefinition/vrdr-cause-of-death-part1"
          ]
        },
        "status": "final",
        "code": {
          "coding": [
            {
              "system": "http://loinc.org",
              "code": "69453-9",
              "display": "Cause of death [US Standard Certificate of Death]"
            }
          ]
        },
        "subject": {
          "reference": "urn:uuid:c02e8cff-33d7-4ec1-8741-ca3d8f349cd8"
        },
        "performer": [
          {
            "reference": "urn:uuid:9a89f593-cda1-4ab1-abf9-2e87751c57fc"
          }
        ],
        "valueCodeableConcept": {
          "text": "Coronary artery thrombosis"
        },
        "component": [
          {
            "code": {
              "coding": [
                {
                  "system": "http://hl7.org/fhir/us/vrdr/CodeSystem/vrdr-component-cs",
                  "code": "lineNumber",
                  "display": "line number"
                }
              ]
            },
            "valueInteger": 3
          },
          {
            "code": {
              "coding": [
                {
                  "system": "http://loinc.org",
                  "code": "69440-6",
                  "display": "Disease onset to death interval"
                }
              ]
            },
            "valueString": "5 years"
          }
        ]
      }
    },
    {
      "fullUrl": "urn:uuid:a4c98b70-5d6f-4cb4-918d-a3642f483a62",
      "resource": {
        "resourceType": "Observation",
        "id": "a4c98b70-5d6f-4cb4-918d-a3642f483a62",
        "meta": {
          "profile": [
            "http://hl7.org/fhir/us/vrdr/StructureDefinition/vrdr-cause-of-death-part1"
          ]
        },
        "status": "final",
        "code": {
          "coding": [
            {
              "system": "http://loinc.org",
              "code": "69453-9",
              "display": "Cause of death [US Standard Certificate of Death]"
            }
          ]
        },
        "subject": {
          "reference": "urn:uuid:c02e8cff-33d7-4ec1-8741-ca3d8f349cd8"
        },
        "performer": [
          {
            "reference": "urn:uuid:9a89f593-cda1-4ab1-abf9-2e87751c57fc"
          }
        ],
        "valueCodeableConcept": {
          "text": "Atherosclerotic coronary artery disease"
        },
        "component": [
          {
            "code": {
              "coding": [
                {
                  "system": "http://hl7.org/fhir/us/vrdr/CodeSystem/vrdr-component-cs",
                  "code": "lineNumber",
                  "display": "line number"
                }
              ]
            },
            "valueInteger": 4
          },
          {
            "code": {
              "coding": [
                {
                  "system": "http://loinc.org",
                  "code": "69440-6",
                  "display": "Disease onset to death interval"
                }
              ]
            },
            "valueString": "7 years"
          }
        ]
      }
    },
    {
      "fullUrl": "urn:uuid:1b2f3bdf-ae1b-47bb-af68-cd8fddd5cbe0",
      "resource": {
        "resourceType": "Observation",
        "id": "1b2f3bdf-ae1b-47bb-af68-cd8fddd5cbe0",
        "meta": {
          "profile": [
            "http://hl7.org/fhir/us/vrdr/StructureDefinition/vrdr-input-race-and-ethnicity"
          ]
        },
        "status": "final",
        "code": {
          "coding": [
            {
              "system": "http://hl7.org/fhir/us/vrdr/CodeSystem/vrdr-observations-cs",
              "code": "inputraceandethnicity",
              "display": "Input Race and Ethnicity"
            }
          ]
        },
        "subject": {
          "reference": "urn:uuid:c02e8cff-33d7-4ec1-8741-ca3d8f349cd8"
        },
        "component": [
          {
            "code": {
              "coding": [
                {
                  "system": "http://hl7.org/fhir/us/vrdr/CodeSystem/vrdr-component-cs",
                  "code": "HispanicPuertoRican",
                  "display": "HispanicPuertoRican"
                }
              ]
            },
            "valueCodeableConcept": {
              "coding": [
                {
                  "system": "http://terminology.hl7.org/CodeSystem/v2-0136",
                  "code": "Y",
                  "display": "Yes"
                }
              ]
            }
          },
          {
            "code": {
              "coding": [
                {
                  "system": "http://hl7.org/fhir/us/vrdr/CodeSystem/vrdr-component-cs",
                  "code": "White",
                  "display": "White"
                }
              ]
            },
            "valueBoolean": true
          },
          {
            "code": {
              "coding": [
                {
                  "system": "http://hl7.org/fhir/us/vrdr/CodeSystem/vrdr-component-cs",
                  "code": "NativeHawaiian",
                  "display": "NativeHawaiian"
                }
              ]
            },
            "valueBoolean": true
          },
          {
            "code": {
              "coding": [
                {
                  "system": "http://hl7.org/fhir/us/vrdr/CodeSystem/vrdr-component-cs",
                  "code": "OtherPacificIslander",
                  "display": "OtherPacificIslander"
                }
              ]
            },
            "valueBoolean": true
          }
        ]
      }
    },
    {
      "fullUrl": "urn:uuid:e2cd2305-dbf6-48c9-997d-dadeb87e5bfe",
      "resource": {
        "resourceType": "RelatedPerson",
        "id": "e2cd2305-dbf6-48c9-997d-dadeb87e5bfe",
        "meta": {
          "profile": [
            "http://hl7.org/fhir/us/vrdr/StructureDefinition/vrdr-decedent-father"
          ]
        },
        "active": true,
        "patient": {
          "reference": "urn:uuid:c02e8cff-33d7-4ec1-8741-ca3d8f349cd8"
        },
        "relationship": [
          {
            "coding": [
              {
                "system": "http://terminology.hl7.org/CodeSystem/v3-RoleCode",
                "code": "FTH",
                "display": "father"
              }
            ]
          }
        ],
        "name": [
          {
            "use": "official",
            "family": "Last",
            "given": [
              "Father",
              "Middle"
            ],
            "suffix": [
              "Sr."
            ]
          }
        ]
      }
    },
    {
      "fullUrl": "urn:uuid:df8a70e1-daf0-4e9b-836f-e19e2a6984c1",
      "resource": {
        "resourceType": "RelatedPerson",
        "id": "df8a70e1-daf0-4e9b-836f-e19e2a6984c1",
        "meta": {
          "profile": [
            "http://hl7.org/fhir/us/vrdr/StructureDefinition/vrdr-decedent-mother"
          ]
        },
        "active": true,
        "patient": {
          "reference": "urn:uuid:c02e8cff-33d7-4ec1-8741-ca3d8f349cd8"
        },
        "relationship": [
          {
            "coding": [
              {
                "system": "http://terminology.hl7.org/CodeSystem/v3-RoleCode",
                "code": "MTH",
                "display": "mother"
              }
            ]
          }
        ],
        "name": [
          {
            "use": "official",
            "given": [
              "Mother",
              "Middle"
            ],
            "suffix": [
              "Dr."
            ]
          },
          {
            "use": "maiden",
            "family": "Maiden"
          }
        ]
      }
    },
    {
      "fullUrl": "urn:uuid:9be44637-ec2b-4b07-a35a-af49eb6a6a46",
      "resource": {
        "resourceType": "RelatedPerson",
        "id": "9be44637-ec2b-4b07-a35a-af49eb6a6a46",
        "meta": {
          "profile": [
            "http://hl7.org/fhir/us/vrdr/StructureDefinition/vrdr-decedent-spouse"
          ]
        },
        "active": true,
        "patient": {
          "reference": "urn:uuid:c02e8cff-33d7-4ec1-8741-ca3d8f349cd8"
        },
        "relationship": [
          {
            "coding": [
              {
                "system": "http://terminology.hl7.org/CodeSystem/v3-RoleCode",
                "code": "SPS",
                "display": "spouse"
              }
            ]
          }
        ],
        "name": [
          {
            "use": "official",
            "family": "Last",
            "given": [
              "Spouse",
              "Middle"
            ],
            "suffix": [
              "Ph.D."
            ]
          }
        ]
      }
    },
    {
      "fullUrl": "urn:uuid:1e9d51a0-6103-4ad4-a080-7543fafdc363",
      "resource": {
        "resourceType": "Observation",
        "id": "1e9d51a0-6103-4ad4-a080-7543fafdc363",
        "meta": {
          "profile": [
            "http://hl7.org/fhir/us/vrdr/StructureDefinition/vrdr-decedent-education-level"
          ]
        },
        "status": "final",
        "code": {
          "coding": [
            {
              "system": "http://loinc.org",
              "code": "80913-7",
              "display": "Highest level of education [US Standard Certificate of Death]"
            }
          ]
        },
        "subject": {
          "reference": "urn:uuid:c02e8cff-33d7-4ec1-8741-ca3d8f349cd8"
        },
        "valueCodeableConcept": {
          "coding": [
            {
              "system": "http://terminology.hl7.org/CodeSystem/v3-EducationLevel",
              "code": "BD",
              "display": "College or baccalaureate degree complete"
            }
          ]
        }
      }
    },
    {
      "fullUrl": "urn:uuid:b9b9f5f0-fb8c-4cc3-be6c-32b815917b13",
      "resource": {
        "resourceType": "Observation",
        "id": "b9b9f5f0-fb8c-4cc3-be6c-32b815917b13",
        "meta": {
          "profile": [
            "http://hl7.org/fhir/us/vrdr/StructureDefinition/vrdr-birth-record-identifier"
          ]
        },
        "status": "final",
        "code": {
          "coding": [
            {
              "system": "http://terminology.hl7.org/CodeSystem/v2-0203",
              "code": "BR",
              "display": "Birth registry number"
            }
          ]
        },
        "subject": {
          "reference": "urn:uuid:c02e8cff-33d7-4ec1-8741-ca3d8f349cd8"
        },
        "valueString": "4242123",
        "dataAbsentReason": {
          "coding": [
            {
              "system": "http://terminology.hl7.org/CodeSystem/data-absent-reason",
              "code": "unknown",
              "display": "Unknown"
            }
          ]
        },
        "component": [
          {
            "code": {
              "coding": [
                {
                  "system": "http://loinc.org",
                  "code": "21842-0",
                  "display": "Birthplace"
                }
              ]
            },
            "valueString": "MA"
          },
          {
            "code": {
              "coding": [
                {
                  "system": "http://loinc.org",
                  "code": "80904-6",
                  "display": "Birth year"
                }
              ]
            },
            "valueDateTime": "1940"
          }
        ]
      }
    },
    {
      "fullUrl": "urn:uuid:aba14157-bcb3-4342-a89e-bc823ec2c8a4",
      "resource": {
        "resourceType": "Observation",
        "id": "aba14157-bcb3-4342-a89e-bc823ec2c8a4",
        "meta": {
          "profile": [
            "http://hl7.org/fhir/us/vrdr/StructureDefinition/vrdr-decedent-usual-work"
          ]
        },
        "status": "final",
        "category": [
          {
            "coding": [
              {
                "system": "http://terminology.hl7.org/CodeSystem/observation-category",
                "code": "social-history"
              }
            ]
          }
        ],
        "code": {
          "coding": [
            {
              "system": "http://loinc.org",
              "code": "21843-8",
              "display": "History of Usual occupation"
            }
          ]
        },
        "subject": {
          "reference": "urn:uuid:c02e8cff-33d7-4ec1-8741-ca3d8f349cd8"
        },
        "valueCodeableConcept": {
          "coding": [
            {
              "system": "http://terminology.hl7.org/CodeSystem/v3-NullFlavor",
              "code": "UNK",
              "display": "unknown"
            }
          ],
          "text": "secretary"
        },
        "component": [
          {
            "code": {
              "coding": [
                {
                  "system": "http://loinc.org",
                  "code": "21844-6",
                  "display": "History of Usual industry"
                }
              ]
            },
            "valueCodeableConcept": {
              "coding": [
                {
                  "system": "http://terminology.hl7.org/CodeSystem/v3-NullFlavor",
                  "code": "UNK",
                  "display": "unknown"
                }
              ],
              "text": "State agency"
            }
          }
        ]
      }
    },
    {
      "fullUrl": "urn:uuid:be825b21-9c07-4011-9abc-d4edb0384b88",
      "resource": {
        "resourceType": "Observation",
        "id": "be825b21-9c07-4011-9abc-d4edb0384b88",
        "meta": {
          "profile": [
            "http://hl7.org/fhir/us/vrdr/StructureDefinition/vrdr-decedent-military-service"
          ]
        },
        "status": "final",
        "code": {
          "coding": [
            {
              "system": "http://loinc.org",
              "code": "55280-2",
              "display": "Military service Narrative"
            }
          ]
        },
        "subject": {
          "reference": "urn:uuid:c02e8cff-33d7-4ec1-8741-ca3d8f349cd8"
        },
        "valueCodeableConcept": {
          "coding": [
            {
              "system": "http://terminology.hl7.org/CodeSystem/v2-0136",
              "code": "Y",
              "display": "Yes"
            }
          ]
        }
      }
    },
    {
      "fullUrl": "urn:uuid:a0a15317-88bb-4386-834b-1418063dacab",
      "resource": {
        "resourceType": "Organization",
        "id": "a0a15317-88bb-4386-834b-1418063dacab",
        "meta": {
          "profile": [
            "http://hl7.org/fhir/us/vrdr/StructureDefinition/vrdr-funeral-home"
          ]
        },
        "active": true,
        "type": [
          {
            "coding": [
              {
                "system": "http://hl7.org/fhir/us/vrdr/CodeSystem/vrdr-organization-type-cs",
                "code": "funeralhome",
                "display": "Funeral Home"
              }
            ]
          }
        ],
        "name": "Smith Funeral Home",
        "address": [
          {
            "line": [
              "1011010 Example Street",
              "Line 2"
            ],
            "city": "Bedford",
            "district": "Middlesex",
            "state": "MA",
            "postalCode": "01730",
            "country": "US"
          }
        ]
      }
    },
    {
      "fullUrl": "urn:uuid:ae73645f-f085-44e9-a5d6-1b7754e1f958",
      "resource": {
        "resourceType": "Location",
        "id": "ae73645f-f085-44e9-a5d6-1b7754e1f958",
        "meta": {
          "profile": [
            "http://hl7.org/fhir/us/vrdr/StructureDefinition/vrdr-disposition-location"
          ]
        },
        "name": "Bedford Cemetery",
        "type": [
          {
            "coding": [
              {
                "system": "http://hl7.org/fhir/us/vrdr/CodeSystem/vrdr-location-type-cs",
                "code": "disposition",
                "display": "disposition location"
              }
            ]
          }
        ],
        "address": {
          "line": [
            "603 Example Street",
            "Line 2"
          ],
          "city": "Bedford",
          "district": "Middlesex",
          "state": "MA",
          "postalCode": "01730",
          "country": "US"
        },
        "physicalType": {
          "coding": [
            {
              "system": "http://terminology.hl7.org/CodeSystem/location-physical-type",
              "code": "si",
              "display": "Site"
            }
          ]
        }
      }
    },
    {
      "fullUrl": "urn:uuid:2f9ac268-9a27-4de8-bf4c-2781b0d0b26a",
      "resource": {
        "resourceType": "Observation",
        "id": "2f9ac268-9a27-4de8-bf4c-2781b0d0b26a",
        "meta": {
          "profile": [
            "http://hl7.org/fhir/us/vrdr/StructureDefinition/vrdr-decedent-disposition-method"
          ]
        },
        "status": "final",
        "code": {
          "coding": [
            {
              "system": "http://loinc.org",
              "code": "80905-3",
              "display": "Body disposition method"
            }
          ]
        },
        "subject": {
          "reference": "urn:uuid:c02e8cff-33d7-4ec1-8741-ca3d8f349cd8"
        },
        "valueCodeableConcept": {
          "coding": [
            {
              "system": "http://snomed.info/sct",
              "code": "449971000124106",
              "display": "Burial"
            }
          ]
        }
      }
    },
    {
      "fullUrl": "urn:uuid:f924c15a-c6fa-40f3-9a00-85a52780d364",
      "resource": {
        "resourceType": "Observation",
        "id": "f924c15a-c6fa-40f3-9a00-85a52780d364",
        "meta": {
          "profile": [
            "http://hl7.org/fhir/us/vrdr/StructureDefinition/vrdr-autopsy-performed-indicator"
          ]
        },
        "status": "final",
        "code": {
          "coding": [
            {
              "system": "http://loinc.org",
              "code": "85699-7",
              "display": "Autopsy was performed"
            }
          ]
        },
        "subject": {
          "reference": "urn:uuid:c02e8cff-33d7-4ec1-8741-ca3d8f349cd8"
        },
        "valueCodeableConcept": {
          "coding": [
            {
              "system": "http://terminology.hl7.org/CodeSystem/v2-0136",
              "code": "Y",
              "display": "Yes"
            }
          ]
        },
        "component": [
          {
            "code": {
              "coding": [
                {
                  "system": "http://loinc.org",
                  "code": "69436-4",
                  "display": "Autopsy results available"
                }
              ]
            },
            "valueCodeableConcept": {
              "coding": [
                {
                  "system": "http://terminology.hl7.org/CodeSystem/v2-0136",
                  "code": "Y",
                  "display": "Yes"
                }
              ]
            }
          }
        ]
      }
    },
    {
      "fullUrl": "urn:uuid:a0810512-f48d-46b0-81af-43f29b25819f",
      "resource": {
        "resourceType": "Observation",
        "id": "a0810512-f48d-46b0-81af-43f29b25819f",
        "meta": {
          "profile": [
            "http://hl7.org/fhir/us/vrdr/StructureDefinition/vrdr-decedent-pregnancy-status"
          ]
        },
        "status": "final",
        "code": {
          "coding": [
            {
              "system": "http://loinc.org",
              "code": "69442-2",
              "display": "Timing of recent pregnancy in relation to death"
            }
          ]
        },
        "subject": {
          "reference": "urn:uuid:c02e8cff-33d7-4ec1-8741-ca3d8f349cd8"
        },
        "valueCodeableConcept": {
          "coding": [
            {
              "system": "http://terminology.hl7.org/CodeSystem/v3-NullFlavor",
              "code": "NA",
              "display": "not applicable"
            }
          ]
        }
      }
    },
    {
      "fullUrl": "urn:uuid:ff5822a4-700e-4c3c-8206-6e334a9fb9fa",
      "resource": {
        "resourceType": "Observation",
        "id": "ff5822a4-700e-4c3c-8206-6e334a9fb9fa",
        "meta": {
          "profile": [
            "http://hl7.org/fhir/us/vrdr/StructureDefinition/vrdr-injury-incident"
          ]
        },
        "status": "final",
        "code": {
          "coding": [
            {
              "system": "http://loinc.org",
              "code": "11374-6",
              "display": "Injury incident description Narrative"
            }
          ]
        },
        "subject": {
          "reference": "urn:uuid:c02e8cff-33d7-4ec1-8741-ca3d8f349cd8"
        },
        "_effectiveDateTime": {
          "extension": [
            {
              "extension": [
                {
                  "url": "http://hl7.org/fhir/us/vrdr/StructureDefinition/Date-Year",
                  "valueUnsignedInt": 2018
                },
                {
                  "url": "http://hl7.org/fhir/us/vrdr/StructureDefinition/Date-Month",
                  "valueUnsignedInt": 2
                },
                {
                  "url": "http://hl7.org/fhir/us/vrdr/StructureDefinition/Date-Day",
                  "valueUnsignedInt": 19
                },
                {
                  "url": "http://hl7.org/fhir/us/vrdr/StructureDefinition/Date-Time",
                  "valueTime": "16:48:06"
                }
              ],
              "url": "http://hl7.org/fhir/us/vrdr/StructureDefinition/PartialDateTime"
            }
          ]
        },
        "valueCodeableConcept": {
          "text": "Example Injury Description"
        },
        "component": [
          {
            "code": {
              "coding": [
                {
                  "system": "http://loinc.org",
                  "code": "69451-3",
                  "display": "Transportation role of decedent"
                }
              ]
            },
            "valueCodeableConcept": {
              "coding": [
                {
                  "system": "http://snomed.info/sct",
                  "code": "257500003",
                  "display": "Passenger"
                }
              ]
            }
          },
          {
            "code": {
              "coding": [
                {
                  "system": "http://loinc.org",
                  "code": "69444-8",
                  "display": "Did death result from injury at work"
                }
              ]
            },
            "valueCodeableConcept": {
              "coding": [
                {
                  "system": "http://terminology.hl7.org/CodeSystem/v2-0136",
                  "code": "N",
                  "display": "No"
                }
              ]
            }
          },
          {
            "code": {
              "coding": [
                {
                  "system": "http://loinc.org",
                  "code": "69450-5",
                  "display": "Place of injury Facility"
                }
              ]
            },
            "valueCodeableConcept": {
              "text": "Home"
            }
          }
        ]
      }
    },
    {
      "fullUrl": "urn:uuid:ea564011-4bbf-4471-aa3f-be8d41a142bf",
      "resource": {
        "resourceType": "Observation",
        "id": "ea564011-4bbf-4471-aa3f-be8d41a142bf",
        "meta": {
          "profile": [
            "http://hl7.org/fhir/us/vrdr/StructureDefinition/vrdr-examiner-contacted"
          ]
        },
        "status": "final",
        "code": {
          "coding": [
            {
              "system": "http://loinc.org",
              "code": "74497-9",
              "display": "Medical examiner or coroner was contacted [US Standard Certificate of Death]"
            }
          ]
        },
        "subject": {
          "reference": "urn:uuid:c02e8cff-33d7-4ec1-8741-ca3d8f349cd8"
        },
        "valueCodeableConcept": {
          "coding": [
            {
              "system": "http://terminology.hl7.org/CodeSystem/v2-0136",
              "code": "N",
              "display": "No"
            }
          ]
        }
      }
    },
    {
      "fullUrl": "urn:uuid:97f10110-3c2a-4078-8732-dd0352ec4ba2",
      "resource": {
        "resourceType": "Observation",
        "id": "97f10110-3c2a-4078-8732-dd0352ec4ba2",
        "meta": {
          "profile": [
            "http://hl7.org/fhir/us/vrdr/StructureDefinition/vrdr-tobacco-use-contributed-to-death"
          ]
        },
        "status": "final",
        "code": {
          "coding": [
            {
              "system": "http://loinc.org",
              "code": "69443-0",
              "display": "Did tobacco use contribute to death"
            }
          ]
        },
        "subject": {
          "reference": "urn:uuid:c02e8cff-33d7-4ec1-8741-ca3d8f349cd8"
        },
        "valueCodeableConcept": {
          "coding": [
            {
              "system": "http://snomed.info/sct",
              "code": "373066001",
              "display": "Yes"
            }
          ]
        }
      }
    },
    {
      "fullUrl": "urn:uuid:9bbdb48e-916f-43c7-873b-77c4574cef09",
      "resource": {
        "resourceType": "Location",
        "id": "9bbdb48e-916f-43c7-873b-77c4574cef09",
        "meta": {
          "profile": [
            "http://hl7.org/fhir/us/vrdr/StructureDefinition/vrdr-injury-location"
          ]
        },
        "name": "Example Injury Location Name",
        "type": [
          {
            "coding": [
              {
                "system": "http://hl7.org/fhir/us/vrdr/CodeSystem/vrdr-location-type-cs",
                "code": "injury",
                "display": "injury location"
              }
            ]
          }
        ],
        "address": {
          "line": [
            "781 Example Street",
            "Line 2"
          ],
          "city": "Bedford",
          "district": "Middlesex",
          "state": "MA",
          "postalCode": "01730",
          "country": "US"
        }
      }
    },
    {
      "fullUrl": "urn:uuid:cdad5eba-a083-4331-b5a1-db7f042bab24",
      "resource": {
        "resourceType": "Location",
        "id": "cdad5eba-a083-4331-b5a1-db7f042bab24",
        "meta": {
          "profile": [
            "http://hl7.org/fhir/us/vrdr/StructureDefinition/vrdr-death-location"
          ]
        },
        "name": "Example Death Location Name",
        "description": "Example Death Location Description",
        "type": [
          {
            "coding": [
              {
                "system": "http://hl7.org/fhir/us/vrdr/CodeSystem/vrdr-location-type-cs",
                "code": "death",
                "display": "death location"
              }
            ]
          }
        ],
        "address": {
          "line": [
            "671 Example Street",
            "Line 2"
          ],
          "city": "Bedford",
          "district": "Middlesex",
          "state": "MA",
          "_state": {
            "extension": [
              {
                "url": "http://hl7.org/fhir/us/vrdr/StructureDefinition/Location-Jurisdiction-Id",
                "valueString": "MA"
              }
            ]
          },
          "postalCode": "01730",
          "country": "US"
        }
      }
    },
    {
      "fullUrl": "urn:uuid:e3786e88-29da-4b91-8908-092067470f4d",
      "resource": {
        "resourceType": "Observation",
        "id": "e3786e88-29da-4b91-8908-092067470f4d",
        "meta": {
          "profile": [
            "http://hl7.org/fhir/us/vrdr/StructureDefinition/vrdr-death-date"
          ]
        },
        "status": "final",
        "code": {
          "coding": [
            {
              "system": "http://loinc.org",
              "code": "81956-5",
              "display": "Date+time of death"
            }
          ]
        },
        "subject": {
          "reference": "urn:uuid:c02e8cff-33d7-4ec1-8741-ca3d8f349cd8"
        },
        "_valueDateTime": {
          "extension": [
            {
              "extension": [
                {
                  "url": "http://hl7.org/fhir/us/vrdr/StructureDefinition/Date-Year",
                  "valueUnsignedInt": 2018
                },
                {
                  "url": "http://hl7.org/fhir/us/vrdr/StructureDefinition/Date-Month",
                  "valueUnsignedInt": 2
                },
                {
                  "url": "http://hl7.org/fhir/us/vrdr/StructureDefinition/Date-Day",
                  "valueUnsignedInt": 19
                },
                {
                  "url": "http://hl7.org/fhir/us/vrdr/StructureDefinition/Date-Time",
                  "valueTime": "16:48:06"
                }
              ],
              "url": "http://hl7.org/fhir/us/vrdr/StructureDefinition/PartialDateTime"
            }
          ]
        },
        "component": [
          {
            "code": {
              "coding": [
                {
                  "system": "http://loinc.org",
                  "code": "58332-8",
                  "display": "Place of death"
                }
              ]
            },
            "valueCodeableConcept": {
              "coding": [
                {
                  "system": "http://snomed.info/sct",
                  "code": "16983000",
                  "display": "Death in hospital"
                }
              ]
            }
          },
          {
            "code": {
              "coding": [
                {
                  "system": "http://loinc.org",
                  "code": "80616-6",
                  "display": "Date and time pronounced dead [US Standard Certificate of Death]"
                }
              ]
            },
            "valueDateTime": "2018-02-20T16:48:06-05:00"
          }
        ]
      }
    },
    {
      "fullUrl": "urn:uuid:bf762ca7-4544-4fe3-8a1a-c7b000cef5bb",
      "resource": {
        "resourceType": "Observation",
        "id": "bf762ca7-4544-4fe3-8a1a-c7b000cef5bb",
        "meta": {
          "profile": [
            "http://hl7.org/fhir/us/vrdr/StructureDefinition/vrdr-decedent-age"
          ]
        },
        "status": "final",
        "code": {
          "coding": [
            {
              "system": "http://loinc.org",
              "code": "39016-1",
              "display": "Age at death"
            }
          ]
        },
        "subject": {
          "reference": "urn:uuid:c02e8cff-33d7-4ec1-8741-ca3d8f349cd8"
        },
        "valueQuantity": {
          "value": 79,
          "unit": "a"
        }
      }
    }
  ]
}

